timestamp,orien_x,orien_y,orien_z,orien_w,ang_vel_x,ang_vel_y,ang_vel_z,lin_acc_x,lin_acc_y,lin_acc_z,orien_cov_01,orien_cov_02,orien_cov_03,orien_cov_04,orien_cov_05,orien_cov_06,orien_cov_07,orien_cov_08,orien_cov_09,ang_vel_cov_01,ang_vel_cov_02,ang_vel_cov_03,ang_vel_cov_04,ang_vel_cov_05,ang_vel_cov_06,ang_vel_cov_07,ang_vel_cov_08,ang_vel_cov_09,lin_acc_cov_01,lin_acc_cov_02,lin_acc_cov_03,lin_acc_cov_04,lin_acc_cov_05,lin_acc_cov_06,lin_acc_cov_07,lin_acc_cov_08,lin_acc_cov_09,lin_acc_x_calib,lin_acc_y_calib,lin_acc_z_calib
1707035044.8436584,0.0,0.0,0.0,0.0,0.0005326322180158476,0.0002663161090079238,0.0005326322180158476,-2.583984375,-0.1136474609375,9.6289306640625,0.0,0.0,0.0,0.0,0.0,0.0,0.0,0.0,0.0,0.0,0.0,0.0,0.0,0.0,0.0,0.0,0.0,0.0,0.0,0.0,0.0,0.0,0.0,0.0,0.0,0.0,0.0,0.00716682931375523,-0.1136474609375,9.969615319565987
1707035044.8447828,0.0,0.0,0.0,0.0,0.0002663161090079238,0.0018642127630554663,0.0010652644360316951,-2.595947265625,-0.117236328125,9.6528564453125,0.0,0.0,0.0,0.0,0.0,0.0,0.0,0.0,0.0,0.0,0.0,0.0,0.0,0.0,0.0,0.0,0.0,0.0,0.0,0.0,0.0,0.0,0.0,0.0,0.0,0.0,0.0,0.001832808259840668,-0.117236328125,9.995827949726369
1707035044.8811142,0.0,0.0,0.0,0.0,0.0005326322180158476,0.001331580545039619,0.0007989483270237714,-2.5947509765625,-0.1232177734375,9.65166015625,0.0,0.0,0.0,0.0,0.0,0.0,0.0,0.0,0.0,0.0,0.0,0.0,0.0,0.0,0.0,0.0,0.0,0.0,0.0,0.0,0.0,0.0,0.0,0.0,0.0,0.0,0.0,0.0026771021262828043,-0.1232177734375,9.994361872337825
1707035044.8824174,0.0,0.0,0.0,0.0,0.001331580545039619,0.0005326322180158476,0.0,-2.6138916015625,-0.1208251953125,9.6504638671875,0.0,0.0,0.0,0.0,0.0,0.0,0.0,0.0,0.0,0.0,0.0,0.0,0.0,0.0,0.0,0.0,0.0,0.0,0.0,0.0,0.0,0.0,0.0,0.0,0.0,0.0,0.0,-0.01611675967466475,-0.1208251953125,9.998180954887149
1707035044.8834777,0.0,0.0,0.0,0.0,0.0005326322180158476,0.0015978966540475428,-0.0002663161090079238,-2.5875732421875,-0.1208251953125,9.640893554687501,0.0,0.0,0.0,0.0,0.0,0.0,0.0,0.0,0.0,0.0,0.0,0.0,0.0,0.0,0.0,0.0,0.0,0.0,0.0,0.0,0.0,0.0,0.0,0.0,0.0,0.0,0.0,0.00681019004178518,-0.1208251953125,9.982099851124078
1707035044.92117,0.0,0.0,0.0,0.0,0.0005326322180158476,0.001331580545039619,0.0002663161090079238,-2.5827880859375,-0.12919921875,9.621752929687501,0.0,0.0,0.0,0.0,0.0,0.0,0.0,0.0,0.0,0.0,0.0,0.0,0.0,0.0,0.0,0.0,0.0,0.0,0.0,0.0,0.0,0.0,0.0,0.0,0.0,0.0,0.0,0.006456664374943077,-0.12919921875,9.962373314039976
1707035044.9222507,0.0,0.0,0.0,0.0,0.0010652644360316951,0.002929477199087161,0.0002663161090079238,-2.6138916015625,-0.1244140625,9.6480712890625,0.0,0.0,0.0,0.0,0.0,0.0,0.0,0.0,0.0,0.0,0.0,0.0,0.0,0.0,0.0,0.0,0.0,0.0,0.0,0.0,0.0,0.0,0.0,0.0,0.0,0.0,0.0,-0.01673854319676682,-0.1244140625,9.995870583632161
1707035044.9233215,0.0,0.0,0.0,0.0,0.0007989483270237714,0.0015978966540475428,0.0005326322180158476,-2.6031250000000004,-0.1208251953125,9.649267578125,0.0,0.0,0.0,0.0,0.0,0.0,0.0,0.0,0.0,0.0,0.0,0.0,0.0,0.0,0.0,0.0,0.0,0.0,0.0,0.0,0.0,0.0,0.0,0.0,0.0,0.0,0.0,-0.006030980788274132,-0.1208251953125,9.994227743410194
1707035045.102771,0.0,0.0,0.0,0.0,-0.0005326322180158476,0.0010652644360316951,0.0002663161090079238,-2.6318359375,-0.136376953125,9.649267578125,0.0,0.0,0.0,0.0,0.0,0.0,0.0,0.0,0.0,0.0,0.0,0.0,0.0,0.0,0.0,0.0,0.0,0.0,0.0,0.0,0.0,0.0,0.0,0.0,0.0,0.0,0.0,-0.033755435848119575,-0.136376953125,10.00168914567542
1707035045.1207895,0.0,0.0,0.0,0.0,0.001331580545039619,0.0010652644360316951,0.0002663161090079238,-2.648583984375,-0.122021484375,9.6767822265625,0.0,0.0,0.0,0.0,0.0,0.0,0.0,0.0,0.0,0.0,0.0,0.0,0.0,0.0,0.0,0.0,0.0,0.0,0.0,0.0,0.0,0.0,0.0,0.0,0.0,0.0,0.0,-0.04277752412885549,-0.122021484375,10.032610899762487
1707035045.121834,0.0,0.0,0.0,0.0,0.0002663161090079238,-0.0023968449810713144,0.0,-2.5564697265625,-0.1351806640625,9.610986328125,0.0,0.0,0.0,0.0,0.0,0.0,0.0,0.0,0.0,0.0,0.0,0.0,0.0,0.0,0.0,0.0,0.0,0.0,0.0,0.0,0.0,0.0,0.0,0.0,0.0,0.0,0.0,0.02907272233034197,-0.1351806640625,9.94513702464941
1707035045.3630614,0.0,0.0,0.0,0.0,0.0002663161090079238,0.00346210941710301,0.0010652644360316951,-2.66533203125,-0.12919921875,9.668408203125,0.0,0.0,0.0,0.0,0.0,0.0,0.0,0.0,0.0,0.0,0.0,0.0,0.0,0.0,0.0,0.0,0.0,0.0,0.0,0.0,0.0,0.0,0.0,0.0,0.0,0.0,0.0,-0.06112636524112247,-0.12919921875,10.028877085024746
1707035045.400417,0.0,0.0,0.0,0.0,0.0,0.0007989483270237714,0.0007989483270237714,-2.6509765625000004,-0.1064697265625,9.6719970703125,0.0,0.0,0.0,0.0,0.0,0.0,0.0,0.0,0.0,0.0,0.0,0.0,0.0,0.0,0.0,0.0,0.0,0.0,0.0,0.0,0.0,0.0,0.0,0.0,0.0,0.0,0.0,-0.04633146242804731,-0.1064697265625,10.028611940774613
1707035045.401452,0.0,0.0,0.0,0.0,0.0005326322180158476,-0.0021305288720633903,0.0002663161090079238,-2.5684326171875,-0.12919921875,9.621752929687501,0.0,0.0,0.0,0.0,0.0,0.0,0.0,0.0,0.0,0.0,0.0,0.0,0.0,0.0,0.0,0.0,0.0,0.0,0.0,0.0,0.0,0.0,0.0,0.0,0.0,0.0,0.0,0.02031889190486602,-0.12919921875,9.958642612907363
1707035045.4025075,0.0,0.0,0.0,0.0,0.0005326322180158476,0.0,0.0,-2.5397216796875,-0.1112548828125,9.6121826171875,0.0,0.0,0.0,0.0,0.0,0.0,0.0,0.0,0.0,0.0,0.0,0.0,0.0,0.0,0.0,0.0,0.0,0.0,0.0,0.0,0.0,0.0,0.0,0.0,0.0,0.0,0.0,0.04555621287630274,-0.1112548828125,9.94193972562219
1707035045.4223323,0.0,0.0,0.0,0.0,0.0002663161090079238,0.0031957933080950856,0.0002663161090079238,-2.5612548828125004,-0.102880859375,9.639697265625,0.0,0.0,0.0,0.0,0.0,0.0,0.0,0.0,0.0,0.0,0.0,0.0,0.0,0.0,0.0,0.0,0.0,0.0,0.0,0.0,0.0,0.0,0.0,0.0,0.0,0.0,0.0,0.03191338208559191,-0.102880859375,9.97410504675346
1707035045.4627252,0.0,0.0,0.0,0.0,0.0,0.0021305288720633903,-0.0002663161090079238,-2.64619140625,-0.1160400390625,9.654052734375,0.0,0.0,0.0,0.0,0.0,0.0,0.0,0.0,0.0,0.0,0.0,0.0,0.0,0.0,0.0,0.0,0.0,0.0,0.0,0.0,0.0,0.0,0.0,0.0,0.0,0.0,0.0,-0.04637409633383793,-0.1160400390625,10.010040589318006
1707035045.6029227,0.0,0.0,0.0,0.0,0.0002663161090079238,0.002663161090079238,0.001331580545039619,-2.5995361328125,-0.12680664062500002,9.638500976562499,0.0,0.0,0.0,0.0,0.0,0.0,0.0,0.0,0.0,0.0,0.0,0.0,0.0,0.0,0.0,0.0,0.0,0.0,0.0,0.0,0.0,0.0,0.0,0.0,0.0,0.0,0.0,-0.005363449755253047,-0.12680664062500002,9.982898397479598
1707035045.6406667,0.0,0.0,0.0,0.0,0.0005326322180158476,0.0021305288720633903,0.001331580545039619,-2.5899658203125,-0.1375732421875,9.6337158203125,0.0,0.0,0.0,0.0,0.0,0.0,0.0,0.0,0.0,0.0,0.0,0.0,0.0,0.0,0.0,0.0,0.0,0.0,0.0,0.0,0.0,0.0,0.0,0.0,0.0,0.0,0.0,0.002634468220491737,-0.1375732421875,9.975790520881217
1707035045.940724,0.0,0.0,0.0,0.0,0.0005326322180158476,0.0015978966540475428,0.0015978966540475428,-2.619873046875,-0.1280029296875,9.654052734375,0.0,0.0,0.0,0.0,0.0,0.0,0.0,0.0,0.0,0.0,0.0,0.0,0.0,0.0,0.0,0.0,0.0,0.0,0.0,0.0,0.0,0.0,0.0,0.0,0.0,0.0,0.0,-0.02096001252897972,-0.1280029296875,10.003200970574884
1707035045.9420953,0.0,0.0,0.0,0.0,0.0002663161090079238,0.001331580545039619,0.0010652644360316951,-2.60791015625,-0.1256103515625,9.668408203125,0.0,0.0,0.0,0.0,0.0,0.0,0.0,0.0,0.0,0.0,0.0,0.0,0.0,0.0,0.0,0.0,0.0,0.0,0.0,0.0,0.0,0.0,0.0,0.0,0.0,0.0,0.0,-0.005677455121431141,-0.1256103515625,10.013954280494296
1707035045.943174,0.0,0.0,0.0,0.0,0.0005326322180158476,0.0015978966540475428,0.0005326322180158476,-2.6091064453125004,-0.1184326171875,9.667211914062499,0.0,0.0,0.0,0.0,0.0,0.0,0.0,0.0,0.0,0.0,0.0,0.0,0.0,0.0,0.0,0.0,0.0,0.0,0.0,0.0,0.0,0.0,0.0,0.0,0.0,0.0,0.0,-0.00714353250997668,-0.1184326171875,10.013109986627853
1707035045.962552,0.0,0.0,0.0,0.0,0.001331580545039619,0.0007989483270237714,0.0007989483270237714,-2.5708251953125,-0.1208251953125,9.625341796875,0.0,0.0,0.0,0.0,0.0,0.0,0.0,0.0,0.0,0.0,0.0,0.0,0.0,0.0,0.0,0.0,0.0,0.0,0.0,0.0,0.0,0.0,0.0,0.0,0.0,0.0,0.0,0.018941195933031896,-0.1208251953125,9.962729953311946
1707035045.96362,0.0,0.0,0.0,0.0,0.0005326322180158476,0.0018642127630554663,0.0,-2.586376953125,-0.102880859375,9.620556640625,0.0,0.0,0.0,0.0,0.0,0.0,0.0,0.0,0.0,0.0,0.0,0.0,0.0,0.0,0.0,0.0,0.0,0.0,0.0,0.0,0.0,0.0,0.0,0.0,0.0,0.0,0.0,0.0026802157314116393,-0.102880859375,9.962150803695634
1707035045.9648535,0.0,0.0,0.0,0.0,0.0010652644360316951,0.0023968449810713144,0.0010652644360316951,-2.6091064453125004,-0.12680664062500002,9.62294921875,0.0,0.0,0.0,0.0,0.0,0.0,0.0,0.0,0.0,0.0,0.0,0.0,0.0,0.0,0.0,0.0,0.0,0.0,0.0,0.0,0.0,0.0,0.0,0.0,0.0,0.0,0.0,-0.018646527668864987,-0.12680664062500002,9.970368118410592
1707035046.0004923,0.0,0.0,0.0,0.0,0.001331580545039619,0.0031957933080950856,0.0005326322180158476,-2.622265625,-0.1160400390625,9.6504638671875,0.0,0.0,0.0,0.0,0.0,0.0,0.0,0.0,0.0,0.0,0.0,0.0,0.0,0.0,0.0,0.0,0.0,0.0,0.0,0.0,0.0,0.0,0.0,0.0,0.0,0.0,0.0,-0.024203059067119614,-0.1160400390625,10.000357197214505
1707035046.0016031,0.0,0.0,0.0,0.0,0.001331580545039619,0.0002663161090079238,0.0007989483270237714,-2.605517578125,-0.107666015625,9.64208984375,0.0,0.0,0.0,0.0,0.0,0.0,0.0,0.0,0.0,0.0,0.0,0.0,0.0,0.0,0.0,0.0,0.0,0.0,0.0,0.0,0.0,0.0,0.0,0.0,0.0,0.0,0.0,-0.010206702609567131,-0.107666015625,9.987918413167336
1707035046.0026717,0.0,0.0,0.0,0.0,0.001331580545039619,0.0005326322180158476,0.0007989483270237714,-2.5875732421875,-0.12680664062500002,9.627734375,0.0,0.0,0.0,0.0,0.0,0.0,0.0,0.0,0.0,0.0,0.0,0.0,0.0,0.0,0.0,0.0,0.0,0.0,0.0,0.0,0.0,0.0,0.0,0.0,0.0,0.0,0.0,0.0033903806702233474,-0.12680664062500002,9.969392809221645
1707035046.0305178,0.0,0.0,0.0,0.0,0.0015978966540475428,0.0023968449810713144,0.0,-2.605517578125,-0.1088623046875,9.6504638671875,0.0,0.0,0.0,0.0,0.0,0.0,0.0,0.0,0.0,0.0,0.0,0.0,0.0,0.0,0.0,0.0,0.0,0.0,0.0,0.0,0.0,0.0,0.0,0.0,0.0,0.0,0.0,-0.008030460282209884,-0.1088623046875,9.996004712559792
1707035046.0315487,0.0,0.0,0.0,0.0,0.0007989483270237714,0.0023968449810713144,0.0007989483270237714,-2.6031250000000004,-0.10048828125,9.658837890625,0.0,0.0,0.0,0.0,0.0,0.0,0.0,0.0,0.0,0.0,0.0,0.0,0.0,0.0,0.0,0.0,0.0,0.0,0.0,0.0,0.0,0.0,0.0,0.0,0.0,0.0,0.0,-0.003543846699865849,-0.10048828125,10.003469228430143
1707035046.03258,0.0,0.0,0.0,0.0,0.0002663161090079238,0.0015978966540475428,0.0007989483270237714,-2.610302734375,-0.1088623046875,9.663623046875,0.0,0.0,0.0,0.0,0.0,0.0,0.0,0.0,0.0,0.0,0.0,0.0,0.0,0.0,0.0,0.0,0.0,0.0,0.0,0.0,0.0,0.0,0.0,0.0,0.0,0.0,0.0,-0.009231393420622513,-0.1088623046875,10.009955321506425
1707035046.060718,0.0,0.0,0.0,0.0,0.0,0.0015978966540475428,0.0002663161090079238,-2.64140625,-0.1112548828125,9.666015625,0.0,0.0,0.0,0.0,0.0,0.0,0.0,0.0,0.0,0.0,0.0,0.0,0.0,0.0,0.0,0.0,0.0,0.0,0.0,0.0,0.0,0.0,0.0,0.0,0.0,0.0,0.0,-0.03864443621335356,-0.1112548828125,10.020348878548738
1707035046.0620131,0.0,0.0,0.0,0.0,0.0,0.0002663161090079238,0.0002663161090079238,-2.5732177734375004,-0.136376953125,9.627734375,0.0,0.0,0.0,0.0,0.0,0.0,0.0,0.0,0.0,0.0,0.0,0.0,0.0,0.0,0.0,0.0,0.0,0.0,0.0,0.0,0.0,0.0,0.0,0.0,0.0,0.0,0.0,0.017252608200145847,-0.136376953125,9.965662108089033
1707035046.0633476,0.0,0.0,0.0,0.0,0.0002663161090079238,0.0023968449810713144,0.0005326322180158476,-2.5935546875,-0.117236328125,9.664819335937501,0.0,0.0,0.0,0.0,0.0,0.0,0.0,0.0,0.0,0.0,0.0,0.0,0.0,0.0,0.0,0.0,0.0,0.0,0.0,0.0,0.0,0.0,0.0,0.0,0.0,0.0,0.0,0.007252097125338697,-0.117236328125,10.006758022479204
1707035046.1005487,0.0,0.0,0.0,0.0,0.0005326322180158476,0.0010652644360316951,0.0002663161090079238,-2.6031250000000004,-0.1112548828125,9.649267578125,0.0,0.0,0.0,0.0,0.0,0.0,0.0,0.0,0.0,0.0,0.0,0.0,0.0,0.0,0.0,0.0,0.0,0.0,0.0,0.0,0.0,0.0,0.0,0.0,0.0,0.0,0.0,-0.006030980788274132,-0.1112548828125,9.994227743410194
1707035046.1016753,0.0,0.0,0.0,0.0,0.0005326322180158476,0.0021305288720633903,0.0010652644360316951,-2.5935546875,-0.122021484375,9.6504638671875,0.0,0.0,0.0,0.0,0.0,0.0,0.0,0.0,0.0,0.0,0.0,0.0,0.0,0.0,0.0,0.0,0.0,0.0,0.0,0.0,0.0,0.0,0.0,0.0,0.0,0.0,0.0,0.0035213959927258287,-0.122021484375,9.99289579494928
1707035046.1027544,0.0,0.0,0.0,0.0,0.0002663161090079238,0.0015978966540475428,0.001331580545039619,-2.5947509765625,-0.141162109375,9.639697265625,0.0,0.0,0.0,0.0,0.0,0.0,0.0,0.0,0.0,0.0,0.0,0.0,0.0,0.0,0.0,0.0,0.0,0.0,0.0,0.0,0.0,0.0,0.0,0.0,0.0,0.0,0.0,-0.000431815484227549,-0.141162109375,9.982810016062889
1707035046.1222522,0.0,0.0,0.0,0.0,0.0002663161090079238,0.0023968449810713144,0.0010652644360316951,-2.619873046875,-0.155517578125,9.639697265625,0.0,0.0,0.0,0.0,0.0,0.0,0.0,0.0,0.0,0.0,0.0,0.0,0.0,0.0,0.0,0.0,0.0,0.0,0.0,0.0,0.0,0.0,0.0,0.0,0.0,0.0,0.0,-0.02469071366159259,-0.155517578125,9.98933874304496
1707035046.123373,0.0,0.0,0.0,0.0,0.0007989483270237714,0.0021305288720633903,0.0002663161090079238,-2.6354248046875,-0.1112548828125,9.6576416015625,0.0,0.0,0.0,0.0,0.0,0.0,0.0,0.0,0.0,0.0,0.0,0.0,0.0,0.0,0.0,0.0,0.0,0.0,0.0,0.0,0.0,0.0,0.0,0.0,0.0,0.0,0.0,-0.035044750403243174,-0.1112548828125,10.010708120351026
1707035046.1244419,0.0,0.0,0.0,0.0,0.0005326322180158476,0.0005326322180158476,0.0,-2.600732421875,-0.1160400390625,9.64208984375,0.0,0.0,0.0,0.0,0.0,0.0,0.0,0.0,0.0,0.0,0.0,0.0,0.0,0.0,0.0,0.0,0.0,0.0,0.0,0.0,0.0,0.0,0.0,0.0,0.0,0.0,0.0,-0.0055859600995931125,-0.1160400390625,9.986674846123131
1707035046.1613247,0.0,0.0,0.0,0.0,0.0010652644360316951,0.0010652644360316951,0.0002663161090079238,-2.595947265625,-0.1399658203125,9.6361083984375,0.0,0.0,0.0,0.0,0.0,0.0,0.0,0.0,0.0,0.0,0.0,0.0,0.0,0.0,0.0,0.0,0.0,0.0,0.0,0.0,0.0,0.0,0.0,0.0,0.0,0.0,0.0,-0.0025196763948738266,-0.1399658203125,9.97965535094146
1707035046.1624084,0.0,0.0,0.0,0.0,0.0007989483270237714,0.0018642127630554663,0.0,-2.5935546875,-0.12680664062500002,9.65166015625,0.0,0.0,0.0,0.0,0.0,0.0,0.0,0.0,0.0,0.0,0.0,0.0,0.0,0.0,0.0,0.0,0.0,0.0,0.0,0.0,0.0,0.0,0.0,0.0,0.0,0.0,0.0,0.00383228775377642,-0.12680664062500002,9.994050980576773
1707035046.1634743,0.0,0.0,0.0,0.0,0.0010652644360316951,0.0015978966540475428,0.0005326322180158476,-2.610302734375,-0.1112548828125,9.646875,0.0,0.0,0.0,0.0,0.0,0.0,0.0,0.0,0.0,0.0,0.0,0.0,0.0,0.0,0.0,0.0,0.0,0.0,0.0,0.0,0.0,0.0,0.0,0.0,0.0,0.0,0.0,-0.013583878075337008,-0.1112548828125,9.993782722721514
1707035046.1808302,0.0,0.0,0.0,0.0,0.0002663161090079238,0.0005326322180158476,0.0005326322180158476,-2.5708251953125,-0.1244140625,9.6337158203125,0.0,0.0,0.0,0.0,0.0,0.0,0.0,0.0,0.0,0.0,0.0,0.0,0.0,0.0,0.0,0.0,0.0,0.0,0.0,0.0,0.0,0.0,0.0,0.0,0.0,0.0,0.0,0.0211174382603887,-0.1244140625,9.9708162527044
1707035046.1818976,0.0,0.0,0.0,0.0,0.0007989483270237714,0.0015978966540475428,0.0002663161090079238,-2.5791992187500004,-0.098095703125,9.65166015625,0.0,0.0,0.0,0.0,0.0,0.0,0.0,0.0,0.0,0.0,0.0,0.0,0.0,0.0,0.0,0.0,0.0,0.0,0.0,0.0,0.0,0.0,0.0,0.0,0.0,0.0,0.0,0.01769451528369892,-0.098095703125,9.99032027944416
1707035046.1829648,0.0,0.0,0.0,0.0,0.001331580545039619,0.002929477199087161,0.0005326322180158476,-2.6031250000000004,-0.1064697265625,9.658837890625,0.0,0.0,0.0,0.0,0.0,0.0,0.0,0.0,0.0,0.0,0.0,0.0,0.0,0.0,0.0,0.0,0.0,0.0,0.0,0.0,0.0,0.0,0.0,0.0,0.0,0.0,0.0,-0.003543846699865849,-0.1064697265625,10.003469228430143
1707035046.2225363,0.0,0.0,0.0,0.0,0.0005326322180158476,0.0021305288720633903,0.001331580545039619,-2.6138916015625,-0.1232177734375,9.668408203125,0.0,0.0,0.0,0.0,0.0,0.0,0.0,0.0,0.0,0.0,0.0,0.0,0.0,0.0,0.0,0.0,0.0,0.0,0.0,0.0,0.0,0.0,0.0,0.0,0.0,0.0,0.0,-0.011453383258898775,-0.1232177734375,10.015508739299552
1707035046.2236047,0.0,0.0,0.0,0.0,0.001331580545039619,-0.0005326322180158476,-0.0002663161090079238,-2.59833984375,-0.1040771484375,9.64208984375,0.0,0.0,0.0,0.0,0.0,0.0,0.0,0.0,0.0,0.0,0.0,0.0,0.0,0.0,0.0,0.0,0.0,0.0,0.0,0.0,0.0,0.0,0.0,0.0,0.0,0.0,0.0,-0.003275588844605437,-0.1040771484375,9.986053062601028
1707035046.2246451,0.0,0.0,0.0,0.0,0.0002663161090079238,-0.0002663161090079238,-0.0002663161090079238,-2.5468994140625,-0.1112548828125,9.6121826171875,0.0,0.0,0.0,0.0,0.0,0.0,0.0,0.0,0.0,0.0,0.0,0.0,0.0,0.0,0.0,0.0,0.0,0.0,0.0,0.0,0.0,0.0,0.0,0.0,0.0,0.0,0.0,0.03862509911134149,-0.1112548828125,9.943805076188497
1707035046.241208,0.0,0.0,0.0,0.0,0.0005326322180158476,0.0031957933080950856,0.0007989483270237714,-2.58876953125,-0.102880859375,9.669604492187501,0.0,0.0,0.0,0.0,0.0,0.0,0.0,0.0,0.0,0.0,0.0,0.0,0.0,0.0,0.0,0.0,0.0,0.0,0.0,0.0,0.0,0.0,0.0,0.0,0.0,0.0,0.0,0.013116406679516857,-0.102880859375,10.010135197944974
1707035046.2422836,0.0,0.0,0.0,0.0,0.0002663161090079238,0.0021305288720633903,0.001331580545039619,-2.59833984375,-0.13278808593750002,9.649267578125,0.0,0.0,0.0,0.0,0.0,0.0,0.0,0.0,0.0,0.0,0.0,0.0,0.0,0.0,0.0,0.0,0.0,0.0,0.0,0.0,0.0,0.0,0.0,0.0,0.0,0.0,0.0,-0.001410238278299225,-0.13278808593750002,9.99298417636599
1707035046.2433476,0.0,0.0,0.0,0.0,-0.0005326322180158476,0.001331580545039619,0.001331580545039619,-2.586376953125,-0.13876953125000002,9.644482421875,0.0,0.0,0.0,0.0,0.0,0.0,0.0,0.0,0.0,0.0,0.0,0.0,0.0,0.0,0.0,0.0,0.0,0.0,0.0,0.0,0.0,0.0,0.0,0.0,0.0,0.0,0.0,0.008898050952432346,-0.13876953125000002,9.985254516245506
1707035046.2804682,0.0,0.0,0.0,0.0,0.0,0.0005326322180158476,0.0005326322180158476,-2.5827880859375,-0.12919921875,9.643286132812499,0.0,0.0,0.0,0.0,0.0,0.0,0.0,0.0,0.0,0.0,0.0,0.0,0.0,0.0,0.0,0.0,0.0,0.0,0.0,0.0,0.0,0.0,0.0,0.0,0.0,0.0,0.0,0.01205271607386127,-0.12919921875,9.983166655334857
1707035046.2815316,0.0,0.0,0.0,0.0,0.0002663161090079238,0.0018642127630554663,0.0005326322180158476,-2.6138916015625,-0.1232177734375,9.663623046875,0.0,0.0,0.0,0.0,0.0,0.0,0.0,0.0,0.0,0.0,0.0,0.0,0.0,0.0,0.0,0.0,0.0,0.0,0.0,0.0,0.0,0.0,0.0,0.0,0.0,0.0,0.0,-0.01269695030310336,-0.1232177734375,10.010887996789577
1707035046.3003914,0.0,0.0,0.0,0.0,0.0,0.0010652644360316951,0.0002663161090079238,-2.6126953125,-0.1232177734375,9.65166015625,0.0,0.0,0.0,0.0,0.0,0.0,0.0,0.0,0.0,0.0,0.0,0.0,0.0,0.0,0.0,0.0,0.0,0.0,0.0,0.0,0.0,0.0,0.0,0.0,0.0,0.0,0.0,-0.014650682286120986,-0.1232177734375,9.99902524875359
1707035046.3014123,0.0,0.0,0.0,0.0,0.0,0.0018642127630554663,0.0,-2.5947509765625,-0.1040771484375,9.638500976562499,0.0,0.0,0.0,0.0,0.0,0.0,0.0,0.0,0.0,0.0,0.0,0.0,0.0,0.0,0.0,0.0,0.0,0.0,0.0,0.0,0.0,0.0,0.0,0.0,0.0,0.0,0.0,-0.0007427072452785843,-0.1040771484375,9.981654830435394
1707035046.3024464,0.0,0.0,0.0,0.0,-0.0005326322180158476,0.0002663161090079238,0.0005326322180158476,-2.605517578125,-0.1280029296875,9.6361083984375,0.0,0.0,0.0,0.0,0.0,0.0,0.0,0.0,0.0,0.0,0.0,0.0,0.0,0.0,0.0,0.0,0.0,0.0,0.0,0.0,0.0,0.0,0.0,0.0,0.0,0.0,0.0,-0.011761161414822308,-0.1280029296875,9.982142485029868
1707035046.3406746,0.0,0.0,0.0,0.0,0.0005326322180158476,0.0005326322180158476,0.0,-2.5935546875,-0.11962890625,9.64208984375,0.0,0.0,0.0,0.0,0.0,0.0,0.0,0.0,0.0,0.0,0.0,0.0,0.0,0.0,0.0,0.0,0.0,0.0,0.0,0.0,0.0,0.0,0.0,0.0,0.0,0.0,0.0,0.0013451536653685814,-0.11962890625,9.984809495556824
1707035046.3417385,0.0,0.0,0.0,0.0,0.0007989483270237714,0.0018642127630554663,0.0010652644360316951,-2.583984375,-0.12919921875,9.6480712890625,0.0,0.0,0.0,0.0,0.0,0.0,0.0,0.0,0.0,0.0,0.0,0.0,0.0,0.0,0.0,0.0,0.0,0.0,0.0,0.0,0.0,0.0,0.0,0.0,0.0,0.0,0.0,0.012141097490572239,-0.12919921875,9.988098289605885
1707035046.342805,0.0,0.0,0.0,0.0,0.0005326322180158476,0.0007989483270237714,-0.0002663161090079238,-2.5468994140625,-0.1375732421875,9.6337158203125,0.0,0.0,0.0,0.0,0.0,0.0,0.0,0.0,0.0,0.0,0.0,0.0,0.0,0.0,0.0,0.0,0.0,0.0,0.0,0.0,0.0,0.0,0.0,0.0,0.0,0.0,0.0,0.044221150810260124,-0.1375732421875,9.96459841748338
1707035046.3631818,0.0,0.0,0.0,0.0,0.0007989483270237714,0.0010652644360316951,-0.0002663161090079238,-2.5947509765625,-0.1088623046875,9.654052734375,0.0,0.0,0.0,0.0,0.0,0.0,0.0,0.0,0.0,0.0,0.0,0.0,0.0,0.0,0.0,0.0,0.0,0.0,0.0,0.0,0.0,0.0,0.0,0.0,0.0,0.0,0.0,0.003298885648385319,-0.1088623046875,9.996672243592812
1707035046.3642952,0.0,0.0,0.0,0.0,0.0005326322180158476,0.0023968449810713144,0.0005326322180158476,-2.5971435546875004,-0.1184326171875,9.65166015625,0.0,0.0,0.0,0.0,0.0,0.0,0.0,0.0,0.0,0.0,0.0,0.0,0.0,0.0,0.0,0.0,0.0,0.0,0.0,0.0,0.0,0.0,0.0,0.0,0.0,0.0,0.0,0.00036673087129512894,-0.1184326171875,9.994983655859926
1707035046.3673737,0.0,0.0,0.0,0.0,0.0005326322180158476,0.002929477199087161,0.0010652644360316951,-2.6138916015625,-0.11005859375,9.67080078125,0.0,0.0,0.0,0.0,0.0,0.0,0.0,0.0,0.0,0.0,0.0,0.0,0.0,0.0,0.0,0.0,0.0,0.0,0.0,0.0,0.0,0.0,0.0,0.0,0.0,0.0,0.0,-0.010831599736797148,-0.11005859375,10.017819110554539
1707035046.4021163,0.0,0.0,0.0,0.0,0.0,0.0010652644360316951,0.0015978966540475428,-2.59833984375,-0.1184326171875,9.6480712890625,0.0,0.0,0.0,0.0,0.0,0.0,0.0,0.0,0.0,0.0,0.0,0.0,0.0,0.0,0.0,0.0,0.0,0.0,0.0,0.0,0.0,0.0,0.0,0.0,0.0,0.0,0.0,-0.0017211300393502604,-0.1184326171875,9.991828990738497
1707035046.4032247,0.0,0.0,0.0,0.0,0.0005326322180158476,0.0005326322180158476,0.0,-2.586376953125,-0.1112548828125,9.620556640625,0.0,0.0,0.0,0.0,0.0,0.0,0.0,0.0,0.0,0.0,0.0,0.0,0.0,0.0,0.0,0.0,0.0,0.0,0.0,0.0,0.0,0.0,0.0,0.0,0.0,0.0,0.0,0.0026802157314116393,-0.1112548828125,9.962150803695634
1707035046.4042633,0.0,0.0,0.0,0.0,0.0010652644360316951,0.0015978966540475428,0.0002663161090079238,-2.5971435546875004,-0.112451171875,9.6313232421875,0.0,0.0,0.0,0.0,0.0,0.0,0.0,0.0,0.0,0.0,0.0,0.0,0.0,0.0,0.0,0.0,0.0,0.0,0.0,0.0,0.0,0.0,0.0,0.0,0.0,0.0,0.0,-0.004918429066572028,-0.112451171875,9.975345500192535
1707035046.421997,0.0,0.0,0.0,0.0,0.001331580545039619,0.0010652644360316951,0.0007989483270237714,-2.6067138671875,-0.1244140625,9.6313232421875,0.0,0.0,0.0,0.0,0.0,0.0,0.0,0.0,0.0,0.0,0.0,0.0,0.0,0.0,0.0,0.0,0.0,0.0,0.0,0.0,0.0,0.0,0.0,0.0,0.0,0.0,0.0,-0.014159914086520065,-0.1244140625,9.977832634280944
1707035046.423069,0.0,0.0,0.0,0.0,0.0007989483270237714,0.0021305288720633903,0.0015978966540475428,-2.61748046875,-0.1399658203125,9.643286132812499,0.0,0.0,0.0,0.0,0.0,0.0,0.0,0.0,0.0,0.0,0.0,0.0,0.0,0.0,0.0,0.0,0.0,0.0,0.0,0.0,0.0,0.0,0.0,0.0,0.0,0.0,0.0,-0.021447667123452252,-0.1399658203125,9.992182516405338
1707035046.4241378,0.0,0.0,0.0,0.0,0.0,0.0010652644360316951,0.0005326322180158476,-2.58876953125,-0.131591796875,9.6576416015625,0.0,0.0,0.0,0.0,0.0,0.0,0.0,0.0,0.0,0.0,0.0,0.0,0.0,0.0,0.0,0.0,0.0,0.0,0.0,0.0,0.0,0.0,0.0,0.0,0.0,0.0,0.0,0.01000748906900606,-0.131591796875,9.998583341670036
1707035046.461212,0.0,0.0,0.0,0.0,0.0007989483270237714,0.0018642127630554663,-0.0005326322180158476,-2.5827880859375,-0.1184326171875,9.6361083984375,0.0,0.0,0.0,0.0,0.0,0.0,0.0,0.0,0.0,0.0,0.0,0.0,0.0,0.0,0.0,0.0,0.0,0.0,0.0,0.0,0.0,0.0,0.0,0.0,0.0,0.0,0.0,0.010187365507555501,-0.1184326171875,9.976235541569897
1707035046.4622803,0.0,0.0,0.0,0.0,0.0010652644360316951,0.0015978966540475428,-0.0005326322180158476,-2.6150878906250004,-0.0921142578125,9.6576416015625,0.0,0.0,0.0,0.0,0.0,0.0,0.0,0.0,0.0,0.0,0.0,0.0,0.0,0.0,0.0,0.0,0.0,0.0,0.0,0.0,0.0,0.0,0.0,0.0,0.0,0.0,0.0,-0.015406594735852597,-0.0921142578125,10.00542296041316
1707035046.4633622,0.0,0.0,0.0,0.0,0.0007989483270237714,0.0010652644360316951,0.0002663161090079238,-2.581591796875,-0.1088623046875,9.639697265625,0.0,0.0,0.0,0.0,0.0,0.0,0.0,0.0,0.0,0.0,0.0,0.0,0.0,0.0,0.0,0.0,0.0,0.0,0.0,0.0,0.0,0.0,0.0,0.0,0.0,0.0,0.0,0.012275226418201335,-0.1088623046875,9.979390206691328
1707035046.4809322,0.0,0.0,0.0,0.0,0.0007989483270237714,0.0007989483270237714,0.0,-2.605517578125,-0.11484375,9.662426757812499,0.0,0.0,0.0,0.0,0.0,0.0,0.0,0.0,0.0,0.0,0.0,0.0,0.0,0.0,0.0,0.0,0.0,0.0,0.0,0.0,0.0,0.0,0.0,0.0,0.0,0.0,0.0,-0.004921542671699974,-0.11484375,10.007556568834726
1707035046.4820013,0.0,0.0,0.0,0.0,0.0002663161090079238,0.0007989483270237714,0.0002663161090079238,-2.6258544921875,-0.1280029296875,9.663623046875,0.0,0.0,0.0,0.0,0.0,0.0,0.0,0.0,0.0,0.0,0.0,0.0,0.0,0.0,0.0,0.0,0.0,0.0,0.0,0.0,0.0,0.0,0.0,0.0,0.0,0.0,0.0,-0.024248806578039073,-0.1280029296875,10.013996914400087
1707035046.4830463,0.0,0.0,0.0,0.0,0.0005326322180158476,-0.0002663161090079238,0.0007989483270237714,-2.6031250000000004,-0.122021484375,9.625341796875,0.0,0.0,0.0,0.0,0.0,0.0,0.0,0.0,0.0,0.0,0.0,0.0,0.0,0.0,0.0,0.0,0.0,0.0,0.0,0.0,0.0,0.0,0.0,0.0,0.0,0.0,0.0,-0.012248816009294838,-0.122021484375,9.971124030860324
1707035046.5205488,0.0,0.0,0.0,0.0,0.0002663161090079238,0.0,0.0007989483270237714,-2.5588623046875,-0.112451171875,9.6289306640625,0.0,0.0,0.0,0.0,0.0,0.0,0.0,0.0,0.0,0.0,0.0,0.0,0.0,0.0,0.0,0.0,0.0,0.0,0.0,0.0,0.0,0.0,0.0,0.0,0.0,0.0,0.0,0.03142572749112027,-0.112451171875,9.963086592583915
1707035046.5217,0.0,0.0,0.0,0.0,0.0,0.002663161090079238,0.0018642127630554663,-2.562451171875,-0.10048828125,9.625341796875,0.0,0.0,0.0,0.0,0.0,0.0,0.0,0.0,0.0,0.0,0.0,0.0,0.0,0.0,0.0,0.0,0.0,0.0,0.0,0.0,0.0,0.0,0.0,0.0,0.0,0.0,0.0,0.027027495325487205,-0.10048828125,9.960553710984588
1707035046.5231454,0.0,0.0,0.0,0.0,0.0007989483270237714,0.003994741635118856,0.0023968449810713144,-2.5744140625,-0.1136474609375,9.6337158203125,0.0,0.0,0.0,0.0,0.0,0.0,0.0,0.0,0.0,0.0,0.0,0.0,0.0,0.0,0.0,0.0,0.0,0.0,0.0,0.0,0.0,0.0,0.0,0.0,0.0,0.0,0.0,0.017651881377908296,-0.1136474609375,9.971748927987553
1707035046.541032,0.0,0.0,0.0,0.0,0.0005326322180158476,0.0042610577441267805,0.00346210941710301,-2.6701171875,-0.1184326171875,9.682763671875,0.0,0.0,0.0,0.0,0.0,0.0,0.0,0.0,0.0,0.0,0.0,0.0,0.0,0.0,0.0,0.0,0.0,0.0,0.0,0.0,0.0,0.0,0.0,0.0,0.0,0.0,0.0,-0.06201640661848451,-0.1184326171875,10.043982879598872
1707035046.5420616,0.0,0.0,0.0,0.0,0.0002663161090079238,0.0010652644360316951,0.001331580545039619,-2.658154296875,-0.1423583984375,9.669604492187501,0.0,0.0,0.0,0.0,0.0,0.0,0.0,0.0,0.0,0.0,0.0,0.0,0.0,0.0,0.0,0.0,0.0,0.0,0.0,0.0,0.0,0.0,0.0,0.0,0.0,0.0,0.0,-0.05388435971510974,-0.1423583984375,10.028166920085935
1707035046.543124,0.0,0.0,0.0,0.0,0.0005326322180158476,-0.001331580545039619,-0.0010652644360316951,-2.6402099609375,-0.14475097656250002,9.67080078125,0.0,0.0,0.0,0.0,0.0,0.0,0.0,0.0,0.0,0.0,0.0,0.0,0.0,0.0,0.0,0.0,0.0,0.0,0.0,0.0,0.0,0.0,0.0,0.0,0.0,0.0,0.0,-0.036245683541655804,-0.14475097656250002,10.024658729297661
1707035046.5805984,0.0,0.0,0.0,0.0,0.0,-0.002663161090079238,-0.0021305288720633903,-2.55048828125,-0.122021484375,9.620556640625,0.0,0.0,0.0,0.0,0.0,0.0,0.0,0.0,0.0,0.0,0.0,0.0,0.0,0.0,0.0,0.0,0.0,0.0,0.0,0.0,0.0,0.0,0.0,0.0,0.0,0.0,0.0,0.03733578455621833,-0.122021484375,9.952824050864104
1707035046.5816667,0.0,0.0,0.0,0.0,0.0010652644360316951,-0.0005326322180158476,-0.0018642127630554663,-2.5110107421875,-0.1088623046875,9.61337890625,0.0,0.0,0.0,0.0,0.0,0.0,0.0,0.0,0.0,0.0,0.0,0.0,0.0,0.0,0.0,0.0,0.0,0.0,0.0,0.0,0.0,0.0,0.0,0.0,0.0,0.0,0.0,0.07359155969719922,-0.1088623046875,9.935633508984457
1707035046.5826895,0.0,0.0,0.0,0.0,0.0007989483270237714,0.0023968449810713144,-0.0002663161090079238,-2.5433105468750004,-0.1280029296875,9.621752929687501,0.0,0.0,0.0,0.0,0.0,0.0,0.0,0.0,0.0,0.0,0.0,0.0,0.0,0.0,0.0,0.0,0.0,0.0,0.0,0.0,0.0,0.0,0.0,0.0,0.0,0.0,0.0,0.04457779008223062,-0.1280029296875,9.952113885925291
1707035046.6007164,0.0,0.0,0.0,0.0,0.0007989483270237714,0.005060006071150552,0.0007989483270237714,-2.6019287109375,-0.1244140625,9.640893554687501,0.0,0.0,0.0,0.0,0.0,0.0,0.0,0.0,0.0,0.0,0.0,0.0,0.0,0.0,0.0,0.0,0.0,0.0,0.0,0.0,0.0,0.0,0.0,0.0,0.0,0.0,0.0,-0.007052037488137319,-0.1244140625,9.98583055225669
1707035046.6017604,0.0,0.0,0.0,0.0,0.0010652644360316951,0.0042610577441267805,0.0010652644360316951,-2.653369140625,-0.1232177734375,9.6839599609375,0.0,0.0,0.0,0.0,0.0,0.0,0.0,0.0,0.0,0.0,0.0,0.0,0.0,0.0,0.0,0.0,0.0,0.0,0.0,0.0,0.0,0.0,0.0,0.0,0.0,0.0,0.0,-0.045532916072523744,-0.1232177734375,10.040785580571653
1707035046.6028383,0.0,0.0,0.0,0.0,0.0002663161090079238,0.0021305288720633903,-0.0002663161090079238,-2.6426025390625,-0.1016845703125,9.640893554687501,0.0,0.0,0.0,0.0,0.0,0.0,0.0,0.0,0.0,0.0,0.0,0.0,0.0,0.0,0.0,0.0,0.0,0.0,0.0,0.0,0.0,0.0,0.0,0.0,0.0,0.0,0.0,-0.04632834882291892,-0.1016845703125,9.996400872132426
1707035046.640561,0.0,0.0,0.0,0.0,0.0002663161090079238,-0.0005326322180158476,-0.0018642127630554663,-2.5899658203125,-0.088525390625,9.625341796875,0.0,0.0,0.0,0.0,0.0,0.0,0.0,0.0,0.0,0.0,0.0,0.0,0.0,0.0,0.0,0.0,0.0,0.0,0.0,0.0,0.0,0.0,0.0,0.0,0.0,0.0,0.0,0.00045822589313493367,-0.088525390625,9.967704221488763
1707035046.6417203,0.0,0.0,0.0,0.0,0.0,0.0,-0.001331580545039619,-2.5923583984375,-0.102880859375,9.6289306640625,0.0,0.0,0.0,0.0,0.0,0.0,0.0,0.0,0.0,0.0,0.0,0.0,0.0,0.0,0.0,0.0,0.0,0.0,0.0,0.0,0.0,0.0,0.0,0.0,0.0,0.0,0.0,-0.0009194700786996357,-0.102880859375,9.971791561893344
1707035046.6427922,0.0,0.0,0.0,0.0,-0.0002663161090079238,0.0,-0.0010652644360316951,-2.56962890625,-0.095703125,9.65166015625,0.0,0.0,0.0,0.0,0.0,0.0,0.0,0.0,0.0,0.0,0.0,0.0,0.0,0.0,0.0,0.0,0.0,0.0,0.0,0.0,0.0,0.0,0.0,0.0,0.0,0.0,0.0,0.0269360003036474,-0.095703125,9.987833145355753
1707035046.6607895,0.0,0.0,0.0,0.0,-0.0002663161090079238,0.001331580545039619,0.0,-2.545703125,-0.093310546875,9.6528564453125,0.0,0.0,0.0,0.0,0.0,0.0,0.0,0.0,0.0,0.0,0.0,0.0,0.0,0.0,0.0,0.0,0.0,0.0,0.0,0.0,0.0,0.0,0.0,0.0,0.0,0.0,0.0,0.050350604614570305,-0.093310546875,9.982770495762225
1707035046.661817,0.0,0.0,0.0,0.0,-0.0010652644360316951,0.0021305288720633903,0.0007989483270237714,-2.5552734375000004,-0.1232177734375,9.621752929687501,0.0,0.0,0.0,0.0,0.0,0.0,0.0,0.0,0.0,0.0,0.0,0.0,0.0,0.0,0.0,0.0,0.0,0.0,0.0,0.0,0.0,0.0,0.0,0.0,0.0,0.0,0.0,0.033025933807294905,-0.1232177734375,9.955222803535802
1707035046.662842,0.0,0.0,0.0,0.0,-0.0005326322180158476,0.005060006071150552,0.002663161090079238,-2.6019287109375,-0.1184326171875,9.634912109375,0.0,0.0,0.0,0.0,0.0,0.0,0.0,0.0,0.0,0.0,0.0,0.0,0.0,0.0,0.0,0.0,0.0,0.0,0.0,0.0,0.0,0.0,0.0,0.0,0.0,0.0,0.0,-0.00860649629339294,-0.1184326171875,9.98005462411922
1707035046.7005548,0.0,0.0,0.0,0.0,0.0,0.004793689962142629,0.002929477199087161,-2.629443359375,-0.1256103515625,9.666015625,0.0,0.0,0.0,0.0,0.0,0.0,0.0,0.0,0.0,0.0,0.0,0.0,0.0,0.0,0.0,0.0,0.0,0.0,0.0,0.0,0.0,0.0,0.0,0.0,0.0,0.0,0.0,-0.02709257993841785,-0.1256103515625,10.017239960938229
1707035046.7017632,0.0,0.0,0.0,0.0,0.0,0.0023968449810713144,0.0023968449810713144,-2.6641357421875,-0.1435546875,9.668408203125,0.0,0.0,0.0,0.0,0.0,0.0,0.0,0.0,0.0,0.0,0.0,0.0,0.0,0.0,0.0,0.0,0.0,0.0,0.0,0.0,0.0,0.0,0.0,0.0,0.0,0.0,0.0,-0.05997117961362841,-0.1435546875,10.028566193263696
1707035046.70289,0.0,0.0,0.0,0.0,0.0,0.0002663161090079238,0.0005326322180158476,-2.634228515625,-0.1256103515625,9.6361083984375,0.0,0.0,0.0,0.0,0.0,0.0,0.0,0.0,0.0,0.0,0.0,0.0,0.0,0.0,0.0,0.0,0.0,0.0,0.0,0.0,0.0,0.0,0.0,0.0,0.0,0.0,0.0,-0.03948561647466775,-0.1256103515625,9.989603887295093
1707035046.7205527,0.0,0.0,0.0,0.0,-0.0002663161090079238,-0.001331580545039619,-0.0002663161090079238,-2.6031250000000004,-0.133984375,9.627734375,0.0,0.0,0.0,0.0,0.0,0.0,0.0,0.0,0.0,0.0,0.0,0.0,0.0,0.0,0.0,0.0,0.0,0.0,0.0,0.0,0.0,0.0,0.0,0.0,0.0,0.0,0.0,-0.011627032487193212,-0.133984375,9.97343440211531
1707035046.7221189,0.0,0.0,0.0,0.0,0.0007989483270237714,0.0002663161090079238,-0.0007989483270237714,-2.59833984375,-0.1435546875,9.6504638671875,0.0,0.0,0.0,0.0,0.0,0.0,0.0,0.0,0.0,0.0,0.0,0.0,0.0,0.0,0.0,0.0,0.0,0.0,0.0,0.0,0.0,0.0,0.0,0.0,0.0,0.0,0.0,-0.0010993465172481898,-0.1435546875,9.994139361993485
1707035046.723189,0.0,0.0,0.0,0.0,0.0023968449810713144,0.0010652644360316951,-0.0002663161090079238,-2.581591796875,-0.1375732421875,9.644482421875,0.0,0.0,0.0,0.0,0.0,0.0,0.0,0.0,0.0,0.0,0.0,0.0,0.0,0.0,0.0,0.0,0.0,0.0,0.0,0.0,0.0,0.0,0.0,0.0,0.0,0.0,0.0,0.01351879346240592,-0.1375732421875,9.984010949201302
1707035046.7604344,0.0,0.0,0.0,0.0,0.0018642127630554663,0.0010652644360316951,-0.0005326322180158476,-2.56005859375,-0.10048828125,9.6337158203125,0.0,0.0,0.0,0.0,0.0,0.0,0.0,0.0,0.0,0.0,0.0,0.0,0.0,0.0,0.0,0.0,0.0,0.0,0.0,0.0,0.0,0.0,0.0,0.0,0.0,0.0,0.0,0.031514108907830796,-0.10048828125,9.96801822685494
1707035046.7614915,0.0,0.0,0.0,0.0,0.0007989483270237714,0.0018642127630554663,0.0002663161090079238,-2.583984375,-0.1232177734375,9.62294921875,0.0,0.0,0.0,0.0,0.0,0.0,0.0,0.0,0.0,0.0,0.0,0.0,0.0,0.0,0.0,0.0,0.0,0.0,0.0,0.0,0.0,0.0,0.0,0.0,0.0,0.0,0.0,0.005612370508500053,-0.1232177734375,9.96383939142852
1707035046.7625575,0.0,0.0,0.0,0.0,0.0005326322180158476,0.0023968449810713144,0.0005326322180158476,-2.60791015625,-0.102880859375,9.6576416015625,0.0,0.0,0.0,0.0,0.0,0.0,0.0,0.0,0.0,0.0,0.0,0.0,0.0,0.0,0.0,0.0,0.0,0.0,0.0,0.0,0.0,0.0,0.0,0.0,0.0,0.0,0.0,-0.008475480970890903,-0.102880859375,10.003557609846853
1707035046.7804055,0.0,0.0,0.0,0.0,0.0010652644360316951,0.001331580545039619,0.0,-2.605517578125,-0.1256103515625,9.639697265625,0.0,0.0,0.0,0.0,0.0,0.0,0.0,0.0,0.0,0.0,0.0,0.0,0.0,0.0,0.0,0.0,0.0,0.0,0.0,0.0,0.0,0.0,0.0,0.0,0.0,0.0,0.0,-0.010828486131669646,-0.1256103515625,9.985608041912348
1707035046.781442,0.0,0.0,0.0,0.0,0.0015978966540475428,0.0015978966540475428,0.0,-2.6138916015625,-0.093310546875,9.6373046875,0.0,0.0,0.0,0.0,0.0,0.0,0.0,0.0,0.0,0.0,0.0,0.0,0.0,0.0,0.0,0.0,0.0,0.0,0.0,0.0,0.0,0.0,0.0,0.0,0.0,0.0,0.0,-0.019536569046226138,-0.093310546875,9.98547391298472
1707035046.7825067,0.0,0.0,0.0,0.0,0.0002663161090079238,0.0002663161090079238,0.0007989483270237714,-2.5827880859375,-0.112451171875,9.6241455078125,0.0,0.0,0.0,0.0,0.0,0.0,0.0,0.0,0.0,0.0,0.0,0.0,0.0,0.0,0.0,0.0,0.0,0.0,0.0,0.0,0.0,0.0,0.0,0.0,0.0,0.0,0.0,0.007078447897044704,-0.112451171875,9.964683685294961
1707035046.8206615,0.0,0.0,0.0,0.0,0.0002663161090079238,0.0007989483270237714,0.001331580545039619,-2.5935546875,-0.1351806640625,9.64208984375,0.0,0.0,0.0,0.0,0.0,0.0,0.0,0.0,0.0,0.0,0.0,0.0,0.0,0.0,0.0,0.0,0.0,0.0,0.0,0.0,0.0,0.0,0.0,0.0,0.0,0.0,0.0,0.0013451536653685814,-0.1351806640625,9.984809495556824
1707035046.8217328,0.0,0.0,0.0,0.0,0.0002663161090079238,0.0005326322180158476,0.0005326322180158476,-2.6091064453125004,-0.1064697265625,9.66123046875,0.0,0.0,0.0,0.0,0.0,0.0,0.0,0.0,0.0,0.0,0.0,0.0,0.0,0.0,0.0,0.0,0.0,0.0,0.0,0.0,0.0,0.0,0.0,0.0,0.0,0.0,0.0,-0.008697991315231413,-0.1064697265625,10.007334058490386
1707035046.8228052,0.0,0.0,0.0,0.0,-0.0002663161090079238,-0.0007989483270237714,0.0005326322180158476,-2.5612548828125004,-0.1160400390625,9.646875,0.0,0.0,0.0,0.0,0.0,0.0,0.0,0.0,0.0,0.0,0.0,0.0,0.0,0.0,0.0,0.0,0.0,0.0,0.0,0.0,0.0,0.0,0.0,0.0,0.0,0.0,0.0,0.03377873265189857,-0.1160400390625,9.981036160518421
1707035046.8410113,0.0,0.0,0.0,0.0,-0.0002663161090079238,0.0005326322180158476,0.0010652644360316951,-2.5445068359375,-0.13278808593750002,9.627734375,0.0,0.0,0.0,0.0,0.0,0.0,0.0,0.0,0.0,0.0,0.0,0.0,0.0,0.0,0.0,0.0,0.0,0.0,0.0,0.0,0.0,0.0,0.0,0.0,0.0,0.0,0.0,0.04497706325999218,-0.13278808593750002,9.958200705823808
1707035046.8420434,0.0,0.0,0.0,0.0,0.0005326322180158476,0.002929477199087161,0.0010652644360316951,-2.5732177734375004,-0.1208251953125,9.6313232421875,0.0,0.0,0.0,0.0,0.0,0.0,0.0,0.0,0.0,0.0,0.0,0.0,0.0,0.0,0.0,0.0,0.0,0.0,0.0,0.0,0.0,0.0,0.0,0.0,0.0,0.0,0.0,0.018185283483299397,-0.1208251953125,9.969127664971515
1707035046.8431144,0.0,0.0,0.0,0.0,0.0007989483270237714,0.004527373853134705,0.0015978966540475428,-2.6318359375,-0.1375732421875,9.662426757812499,0.0,0.0,0.0,0.0,0.0,0.0,0.0,0.0,0.0,0.0,0.0,0.0,0.0,0.0,0.0,0.0,0.0,0.0,0.0,0.0,0.0,0.0,0.0,0.0,0.0,0.0,0.0,-0.03033562647655863,-0.1375732421875,10.014396187577848
1707035046.8816435,0.0,0.0,0.0,0.0,0.0007989483270237714,0.0042610577441267805,0.0007989483270237714,-2.6449951171875004,-0.133984375,9.663623046875,0.0,0.0,0.0,0.0,0.0,0.0,0.0,0.0,0.0,0.0,0.0,0.0,0.0,0.0,0.0,0.0,0.0,0.0,0.0,0.0,0.0,0.0,0.0,0.0,0.0,0.0,0.0,-0.04273177661793648,-0.133984375,10.018971182576905
1707035046.883651,0.0,0.0,0.0,0.0,0.0,0.001331580545039619,0.0010652644360316951,-2.6354248046875,-0.1232177734375,9.649267578125,0.0,0.0,0.0,0.0,0.0,0.0,0.0,0.0,0.0,0.0,0.0,0.0,0.0,0.0,0.0,0.0,0.0,0.0,0.0,0.0,0.0,0.0,0.0,0.0,0.0,0.0,0.0,-0.03722099273060042,-0.1232177734375,10.002621820958574
1707035046.884682,0.0,0.0,0.0,0.0,0.0010652644360316951,-0.0002663161090079238,0.0002663161090079238,-2.5851806640625004,-0.1399658203125,9.6313232421875,0.0,0.0,0.0,0.0,0.0,0.0,0.0,0.0,0.0,0.0,0.0,0.0,0.0,0.0,0.0,0.0,0.0,0.0,0.0,0.0,0.0,0.0,0.0,0.0,0.0,0.0,0.0,0.006633427208363685,-0.1399658203125,9.972236582582026
1707035046.9010446,0.0,0.0,0.0,0.0,0.0018642127630554663,0.0005326322180158476,-0.0010652644360316951,-2.5935546875,-0.1112548828125,9.6528564453125,0.0,0.0,0.0,0.0,0.0,0.0,0.0,0.0,0.0,0.0,0.0,0.0,0.0,0.0,0.0,0.0,0.0,0.0,0.0,0.0,0.0,0.0,0.0,0.0,0.0,0.0,0.0,0.004143179514827899,-0.1112548828125,9.995206166204266
1707035046.9021122,0.0,0.0,0.0,0.0,0.0010652644360316951,0.001331580545039619,0.0002663161090079238,-2.576806640625,-0.1256103515625,9.63251953125,0.0,0.0,0.0,0.0,0.0,0.0,0.0,0.0,0.0,0.0,0.0,0.0,0.0,0.0,0.0,0.0,0.0,0.0,0.0,0.0,0.0,0.0,0.0,0.0,0.0,0.0,0.0,0.01503061836187003,-0.1256103515625,9.971215525882162
1707035046.9031577,0.0,0.0,0.0,0.0,0.0005326322180158476,0.0015978966540475428,0.0,-2.5971435546875004,-0.1052734375,9.6313232421875,0.0,0.0,0.0,0.0,0.0,0.0,0.0,0.0,0.0,0.0,0.0,0.0,0.0,0.0,0.0,0.0,0.0,0.0,0.0,0.0,0.0,0.0,0.0,0.0,0.0,0.0,0.0,-0.004918429066572028,-0.1052734375,9.975345500192535
1707035046.9574168,0.0,0.0,0.0,0.0,0.0007989483270237714,0.002663161090079238,0.0007989483270237714,-2.600732421875,-0.1064697265625,9.646875,0.0,0.0,0.0,0.0,0.0,0.0,0.0,0.0,0.0,0.0,0.0,0.0,0.0,0.0,0.0,0.0,0.0,0.0,0.0,0.0,0.0,0.0,0.0,0.0,0.0,0.0,0.0,-0.004342393055388971,-0.1064697265625,9.991295588633106
1707035046.9584656,0.0,0.0,0.0,0.0,0.0007989483270237714,0.0023968449810713144,0.0010652644360316951,-2.619873046875,-0.112451171875,9.6564453125,0.0,0.0,0.0,0.0,0.0,0.0,0.0,0.0,0.0,0.0,0.0,0.0,0.0,0.0,0.0,0.0,0.0,0.0,0.0,0.0,0.0,0.0,0.0,0.0,0.0,0.0,0.0,-0.02033822900687765,-0.112451171875,10.005511341829871
1707035046.9595275,0.0,0.0,0.0,0.0,-0.0002663161090079238,0.001331580545039619,0.0010652644360316951,-2.629443359375,-0.1112548828125,9.6959228515625,0.0,0.0,0.0,0.0,0.0,0.0,0.0,0.0,0.0,0.0,0.0,0.0,0.0,0.0,0.0,0.0,0.0,0.0,0.0,0.0,0.0,0.0,0.0,0.0,0.0,0.0,0.0,-0.01932028591214152,-0.1112548828125,10.046119601625568
1707035046.963217,0.0,0.0,0.0,0.0,0.0,0.0,0.0007989483270237714,-2.605517578125,-0.1351806640625,9.627734375,0.0,0.0,0.0,0.0,0.0,0.0,0.0,0.0,0.0,0.0,0.0,0.0,0.0,0.0,0.0,0.0,0.0,0.0,0.0,0.0,0.0,0.0,0.0,0.0,0.0,0.0,0.0,-0.013937403742179999,-0.1351806640625,9.974056185637412
1707035046.964363,0.0,0.0,0.0,0.0,-0.0002663161090079238,0.001331580545039619,0.0005326322180158476,-2.61748046875,-0.1280029296875,9.6480712890625,0.0,0.0,0.0,0.0,0.0,0.0,0.0,0.0,0.0,0.0,0.0,0.0,0.0,0.0,0.0,0.0,0.0,0.0,0.0,0.0,0.0,0.0,0.0,0.0,0.0,0.0,0.0,-0.020204100079247667,-0.1280029296875,9.996803258915314
1707035046.9654496,0.0,0.0,0.0,0.0,0.0002663161090079238,0.0005326322180158476,0.0002663161090079238,-2.6114990234375,-0.1184326171875,9.643286132812499,0.0,0.0,0.0,0.0,0.0,0.0,0.0,0.0,0.0,0.0,0.0,0.0,0.0,0.0,0.0,0.0,0.0,0.0,0.0,0.0,0.0,0.0,0.0,0.0,0.0,0.0,0.0,-0.015671738985984618,-0.1184326171875,9.990628057600082
1707035047.001444,0.0,0.0,0.0,0.0,0.0,0.0002663161090079238,0.0010652644360316951,-2.605517578125,-0.1184326171875,9.649267578125,0.0,0.0,0.0,0.0,0.0,0.0,0.0,0.0,0.0,0.0,0.0,0.0,0.0,0.0,0.0,0.0,0.0,0.0,0.0,0.0,0.0,0.0,0.0,0.0,0.0,0.0,0.0,-0.008341352043260919,-0.1184326171875,9.994849526932297
1707035047.0024843,0.0,0.0,0.0,0.0,0.0002663161090079238,0.0,0.0010652644360316951,-2.5803955078125,-0.1399658203125,9.646875,0.0,0.0,0.0,0.0,0.0,0.0,0.0,0.0,0.0,0.0,0.0,0.0,0.0,0.0,0.0,0.0,0.0,0.0,0.0,0.0,0.0,0.0,0.0,0.0,0.0,0.0,0.0,0.01529576261200205,-0.1399658203125,9.986010428695238
1707035047.0035527,0.0,0.0,0.0,0.0,-0.0002663161090079238,0.0010652644360316951,0.0,-2.5564697265625,-0.1208251953125,9.620556640625,0.0,0.0,0.0,0.0,0.0,0.0,0.0,0.0,0.0,0.0,0.0,0.0,0.0,0.0,0.0,0.0,0.0,0.0,0.0,0.0,0.0,0.0,0.0,0.0,0.0,0.0,0.0,0.0315598564187507,-0.1208251953125,9.95437850966936
1707035047.0222666,0.0,0.0,0.0,0.0,-0.0005326322180158476,0.0023968449810713144,0.0007989483270237714,-2.5875732421875,-0.1256103515625,9.6480712890625,0.0,0.0,0.0,0.0,0.0,0.0,0.0,0.0,0.0,0.0,0.0,0.0,0.0,0.0,0.0,0.0,0.0,0.0,0.0,0.0,0.0,0.0,0.0,0.0,0.0,0.0,0.0,0.008675540608091392,-0.1256103515625,9.989030964889038
1707035047.0233345,0.0,0.0,0.0,0.0,0.0,0.0021305288720633903,0.0010652644360316951,-2.583984375,-0.1256103515625,9.638500976562499,0.0,0.0,0.0,0.0,0.0,0.0,0.0,0.0,0.0,0.0,0.0,0.0,0.0,0.0,0.0,0.0,0.0,0.0,0.0,0.0,0.0,0.0,0.0,0.0,0.0,0.0,0.0,0.009653963402163512,-0.1256103515625,9.978856804585934
1707035047.024403,0.0,0.0,0.0,0.0,0.0007989483270237714,0.002929477199087161,0.0005326322180158476,-2.60791015625,-0.1160400390625,9.666015625,0.0,0.0,0.0,0.0,0.0,0.0,0.0,0.0,0.0,0.0,0.0,0.0,0.0,0.0,0.0,0.0,0.0,0.0,0.0,0.0,0.0,0.0,0.0,0.0,0.0,0.0,0.0,-0.006299238643533656,-0.1160400390625,10.011643909239309
1707035047.0605516,0.0,0.0,0.0,0.0,0.0007989483270237714,0.0021305288720633903,0.0002663161090079238,-2.6234619140625,-0.122021484375,9.6504638671875,0.0,0.0,0.0,0.0,0.0,0.0,0.0,0.0,0.0,0.0,0.0,0.0,0.0,0.0,0.0,0.0,0.0,0.0,0.0,0.0,0.0,0.0,0.0,0.0,0.0,0.0,0.0,-0.025358244694613674,-0.122021484375,10.000668088975557
1707035047.0616157,0.0,0.0,0.0,0.0,0.0002663161090079238,0.0010652644360316951,-0.0002663161090079238,-2.6019287109375,-0.11962890625,9.63251953125,0.0,0.0,0.0,0.0,0.0,0.0,0.0,0.0,0.0,0.0,0.0,0.0,0.0,0.0,0.0,0.0,0.0,0.0,0.0,0.0,0.0,0.0,0.0,0.0,0.0,0.0,0.0,-0.009228279815494567,-0.11962890625,9.977744252864234
1707035047.062641,0.0,0.0,0.0,0.0,0.0007989483270237714,0.0007989483270237714,0.0005326322180158476,-2.5672363281250004,-0.1136474609375,9.634912109375,0.0,0.0,0.0,0.0,0.0,0.0,0.0,0.0,0.0,0.0,0.0,0.0,0.0,0.0,0.0,0.0,0.0,0.0,0.0,0.0,0.0,0.0,0.0,0.0,0.0,0.0,0.0,0.024893886903920137,-0.1136474609375,9.971038763048739
1707035047.1006677,0.0,0.0,0.0,0.0,0.0005326322180158476,0.0021305288720633903,0.0007989483270237714,-2.5803955078125,-0.11962890625,9.644482421875,0.0,0.0,0.0,0.0,0.0,0.0,0.0,0.0,0.0,0.0,0.0,0.0,0.0,0.0,0.0,0.0,0.0,0.0,0.0,0.0,0.0,0.0,0.0,0.0,0.0,0.0,0.0,0.01467397908989998,-0.11962890625,9.983700057440252
1707035047.1017416,0.0,0.0,0.0,0.0,0.0007989483270237714,0.002929477199087161,0.0015978966540475428,-2.6019287109375,-0.1256103515625,9.649267578125,0.0,0.0,0.0,0.0,0.0,0.0,0.0,0.0,0.0,0.0,0.0,0.0,0.0,0.0,0.0,0.0,0.0,0.0,0.0,0.0,0.0,0.0,0.0,0.0,0.0,0.0,0.0,-0.004875795160780072,-0.1256103515625,9.993916851649143
1707035047.1028666,0.0,0.0,0.0,0.0,0.0002663161090079238,0.0021305288720633903,0.0005326322180158476,-2.610302734375,-0.1160400390625,9.640893554687501,0.0,0.0,0.0,0.0,0.0,0.0,0.0,0.0,0.0,0.0,0.0,0.0,0.0,0.0,0.0,0.0,0.0,0.0,0.0,0.0,0.0,0.0,0.0,0.0,0.0,0.0,0.0,-0.015138336880592185,-0.1160400390625,9.988006794584049
1707035047.1223469,0.0,0.0,0.0,0.0,0.0005326322180158476,0.001331580545039619,0.0015978966540475428,-2.605517578125,-0.11962890625,9.639697265625,0.0,0.0,0.0,0.0,0.0,0.0,0.0,0.0,0.0,0.0,0.0,0.0,0.0,0.0,0.0,0.0,0.0,0.0,0.0,0.0,0.0,0.0,0.0,0.0,0.0,0.0,0.0,-0.010828486131669646,-0.11962890625,9.985608041912348
1707035047.1234329,0.0,0.0,0.0,0.0,0.0002663161090079238,0.0018642127630554663,0.001331580545039619,-2.586376953125,-0.12919921875,9.63251953125,0.0,0.0,0.0,0.0,0.0,0.0,0.0,0.0,0.0,0.0,0.0,0.0,0.0,0.0,0.0,0.0,0.0,0.0,0.0,0.0,0.0,0.0,0.0,0.0,0.0,0.0,0.0,0.005789133341921993,-0.12919921875,9.97370265997057
1707035047.1245198,0.0,0.0,0.0,0.0,0.0007989483270237714,0.0021305288720633903,0.0005326322180158476,-2.5875732421875,-0.1232177734375,9.6504638671875,0.0,0.0,0.0,0.0,0.0,0.0,0.0,0.0,0.0,0.0,0.0,0.0,0.0,0.0,0.0,0.0,0.0,0.0,0.0,0.0,0.0,0.0,0.0,0.0,0.0,0.0,0.0,0.009297324130193463,-0.1232177734375,9.991341336144025
1707035047.1605563,0.0,0.0,0.0,0.0,0.0010652644360316951,0.0007989483270237714,0.0005326322180158476,-2.5791992187500004,-0.1351806640625,9.615771484375,0.0,0.0,0.0,0.0,0.0,0.0,0.0,0.0,0.0,0.0,0.0,0.0,0.0,0.0,0.0,0.0,0.0,0.0,0.0,0.0,0.0,0.0,0.0,0.0,0.0,0.0,0.0,0.00836776245216786,-0.1351806640625,9.955664710619354
1707035047.161622,0.0,0.0,0.0,0.0,0.0010652644360316951,0.0023968449810713144,0.0005326322180158476,-2.6114990234375,-0.11005859375,9.6241455078125,0.0,0.0,0.0,0.0,0.0,0.0,0.0,0.0,0.0,0.0,0.0,0.0,0.0,0.0,0.0,0.0,0.0,0.0,0.0,0.0,0.0,0.0,0.0,0.0,0.0,0.0,0.0,-0.020646007162801183,-0.11005859375,9.972145087560186
1707035047.1627028,0.0,0.0,0.0,0.0,0.0007989483270237714,0.0018642127630554663,0.0007989483270237714,-2.6162841796875,-0.122021484375,9.66123046875,0.0,0.0,0.0,0.0,0.0,0.0,0.0,0.0,0.0,0.0,0.0,0.0,0.0,0.0,0.0,0.0,0.0,0.0,0.0,0.0,0.0,0.0,0.0,0.0,0.0,0.0,0.0,-0.015629105080192662,-0.122021484375,10.009199409056691
1707035047.1808438,0.0,0.0,0.0,0.0,0.0007989483270237714,0.0005326322180158476,0.0010652644360316951,-2.6150878906250004,-0.1351806640625,9.6719970703125,0.0,0.0,0.0,0.0,0.0,0.0,0.0,0.0,0.0,0.0,0.0,0.0,0.0,0.0,0.0,0.0,0.0,0.0,0.0,0.0,0.0,0.0,0.0,0.0,0.0,0.0,0.0,-0.011675893603240173,-0.1351806640625,10.019285187943083
1707035047.1819255,0.0,0.0,0.0,0.0,0.0010652644360316951,-0.0007989483270237714,0.0002663161090079238,-2.59833984375,-0.13278808593750002,9.6373046875,0.0,0.0,0.0,0.0,0.0,0.0,0.0,0.0,0.0,0.0,0.0,0.0,0.0,0.0,0.0,0.0,0.0,0.0,0.0,0.0,0.0,0.0,0.0,0.0,0.0,0.0,0.0,-0.004519155888809578,-0.13278808593750002,9.981432320091056
1707035047.1829922,0.0,0.0,0.0,0.0,0.0010652644360316951,0.0007989483270237714,0.0002663161090079238,-2.5588623046875,-0.11484375,9.639697265625,0.0,0.0,0.0,0.0,0.0,0.0,0.0,0.0,0.0,0.0,0.0,0.0,0.0,0.0,0.0,0.0,0.0,0.0,0.0,0.0,0.0,0.0,0.0,0.0,0.0,0.0,0.0,0.03422375334057959,-0.11484375,9.973483263231357
1707035047.2212563,0.0,0.0,0.0,0.0,0.0010652644360316951,0.0021305288720633903,0.0007989483270237714,-2.59833984375,-0.107666015625,9.662426757812499,0.0,0.0,0.0,0.0,0.0,0.0,0.0,0.0,0.0,0.0,0.0,0.0,0.0,0.0,0.0,0.0,0.0,0.0,0.0,0.0,0.0,0.0,0.0,0.0,0.0,0.0,0.0,0.0020095710932617195,-0.107666015625,10.005691218268419
1707035047.2223244,0.0,0.0,0.0,0.0,0.0007989483270237714,0.0018642127630554663,0.0007989483270237714,-2.5995361328125,-0.1040771484375,9.6552490234375,0.0,0.0,0.0,0.0,0.0,0.0,0.0,0.0,0.0,0.0,0.0,0.0,0.0,0.0,0.0,0.0,0.0,0.0,0.0,0.0,0.0,0.0,0.0,0.0,0.0,0.0,0.0,-0.0010109651005381082,-0.1040771484375,9.99907099626451
1707035047.2233903,0.0,0.0,0.0,0.0,0.001331580545039619,0.0002663161090079238,0.0005326322180158476,-2.5875732421875,-0.1208251953125,9.6361083984375,0.0,0.0,0.0,0.0,0.0,0.0,0.0,0.0,0.0,0.0,0.0,0.0,0.0,0.0,0.0,0.0,0.0,0.0,0.0,0.0,0.0,0.0,0.0,0.0,0.0,0.0,0.0,0.005566622997581039,-0.1208251953125,9.977479108614101
1707035047.2405462,0.0,0.0,0.0,0.0,0.0005326322180158476,0.0018642127630554663,0.0002663161090079238,-2.5923583984375,-0.13278808593750002,9.621752929687501,0.0,0.0,0.0,0.0,0.0,0.0,0.0,0.0,0.0,0.0,0.0,0.0,0.0,0.0,0.0,0.0,0.0,0.0,0.0,0.0,0.0,0.0,0.0,0.0,0.0,0.0,0.0,-0.0027848206450054036,-0.13278808593750002,9.964860448128384
1707035047.2416337,0.0,0.0,0.0,0.0,0.0007989483270237714,0.0015978966540475428,0.0015978966540475428,-2.619873046875,-0.11484375,9.6600341796875,0.0,0.0,0.0,0.0,0.0,0.0,0.0,0.0,0.0,0.0,0.0,0.0,0.0,0.0,0.0,0.0,0.0,0.0,0.0,0.0,0.0,0.0,0.0,0.0,0.0,0.0,0.0,-0.019405553723724545,-0.11484375,10.008976898712353
1707035047.2434871,0.0,0.0,0.0,0.0,0.0005326322180158476,0.0005326322180158476,0.0010652644360316951,-2.600732421875,-0.1208251953125,9.669604492187501,0.0,0.0,0.0,0.0,0.0,0.0,0.0,0.0,0.0,0.0,0.0,0.0,0.0,0.0,0.0,0.0,0.0,0.0,0.0,0.0,0.0,0.0,0.0,0.0,0.0,0.0,0.0,0.0015645504045811442,-0.1208251953125,10.013244115555485
1707035047.2807736,0.0,0.0,0.0,0.0,0.0005326322180158476,0.0,0.0005326322180158476,-2.58876953125,-0.133984375,9.6600341796875,0.0,0.0,0.0,0.0,0.0,0.0,0.0,0.0,0.0,0.0,0.0,0.0,0.0,0.0,0.0,0.0,0.0,0.0,0.0,0.0,0.0,0.0,0.0,0.0,0.0,0.0,0.0,0.01062927259110813,-0.133984375,10.000893712925025
1707035047.2819211,0.0,0.0,0.0,0.0,-0.0002663161090079238,0.0005326322180158476,0.0005326322180158476,-2.5923583984375,-0.1256103515625,9.65166015625,0.0,0.0,0.0,0.0,0.0,0.0,0.0,0.0,0.0,0.0,0.0,0.0,0.0,0.0,0.0,0.0,0.0,0.0,0.0,0.0,0.0,0.0,0.0,0.0,0.0,0.0,0.0,0.004987473381270036,-0.1256103515625,9.993740088815722
1707035047.2829995,0.0,0.0,0.0,0.0,-0.0002663161090079238,0.0010652644360316951,0.0002663161090079238,-2.562451171875,-0.1184326171875,9.610986328125,0.0,0.0,0.0,0.0,0.0,0.0,0.0,0.0,0.0,0.0,0.0,0.0,0.0,0.0,0.0,0.0,0.0,0.0,0.0,0.0,0.0,0.0,0.0,0.0,0.0,0.0,0.0,0.023296794192874337,-0.1184326171875,9.946691483454664
1707035047.30052,0.0,0.0,0.0,0.0,0.0007989483270237714,0.002929477199087161,0.0018642127630554663,-2.6306396484375,-0.1244140625,9.6504638671875,0.0,0.0,0.0,0.0,0.0,0.0,0.0,0.0,0.0,0.0,0.0,0.0,0.0,0.0,0.0,0.0,0.0,0.0,0.0,0.0,0.0,0.0,0.0,0.0,0.0,0.0,0.0,-0.032289358459574924,-0.1244140625,10.002533439541862
1707035047.3015509,0.0,0.0,0.0,0.0,0.0007989483270237714,0.0018642127630554663,0.0007989483270237714,-2.6114990234375,-0.1244140625,9.638500976562499,0.0,0.0,0.0,0.0,0.0,0.0,0.0,0.0,0.0,0.0,0.0,0.0,0.0,0.0,0.0,0.0,0.0,0.0,0.0,0.0,0.0,0.0,0.0,0.0,0.0,0.0,0.0,-0.01691530603018876,-0.1244140625,9.986007315090108
1707035047.3026118,0.0,0.0,0.0,0.0,0.0,0.0005326322180158476,0.0007989483270237714,-2.5995361328125,-0.136376953125,9.643286132812499,0.0,0.0,0.0,0.0,0.0,0.0,0.0,0.0,0.0,0.0,0.0,0.0,0.0,0.0,0.0,0.0,0.0,0.0,0.0,0.0,0.0,0.0,0.0,0.0,0.0,0.0,0.0,-0.004119882711048906,-0.136376953125,9.987519139989573
1707035047.3421755,0.0,0.0,0.0,0.0,0.0002663161090079238,0.0018642127630554663,0.0002663161090079238,-2.6091064453125004,-0.122021484375,9.630126953125,0.0,0.0,0.0,0.0,0.0,0.0,0.0,0.0,0.0,0.0,0.0,0.0,0.0,0.0,0.0,0.0,0.0,0.0,0.0,0.0,0.0,0.0,0.0,0.0,0.0,0.0,0.0,-0.016781177102558775,-0.122021484375,9.977299232175554
1707035047.3432448,0.0,0.0,0.0,0.0,0.0005326322180158476,0.001331580545039619,0.0010652644360316951,-2.6067138671875,-0.1256103515625,9.643286132812499,0.0,0.0,0.0,0.0,0.0,0.0,0.0,0.0,0.0,0.0,0.0,0.0,0.0,0.0,0.0,0.0,0.0,0.0,0.0,0.0,0.0,0.0,0.0,0.0,0.0,0.0,0.0,-0.011050996476010155,-0.1256103515625,9.989384490555878
1707035047.3443115,0.0,0.0,0.0,0.0,0.0002663161090079238,0.0010652644360316951,0.0015978966540475428,-2.6210693359375004,-0.1160400390625,9.627734375,0.0,0.0,0.0,0.0,0.0,0.0,0.0,0.0,0.0,0.0,0.0,0.0,0.0,0.0,0.0,0.0,0.0,0.0,0.0,0.0,0.0,0.0,0.0,0.0,0.0,0.0,0.0,-0.028954816899596558,-0.1160400390625,9.978097778531074
1707035047.3609471,0.0,0.0,0.0,0.0,0.0010652644360316951,0.0007989483270237714,0.0,-2.5995361328125,-0.102880859375,9.643286132812499,0.0,0.0,0.0,0.0,0.0,0.0,0.0,0.0,0.0,0.0,0.0,0.0,0.0,0.0,0.0,0.0,0.0,0.0,0.0,0.0,0.0,0.0,0.0,0.0,0.0,0.0,0.0,-0.004119882711048906,-0.102880859375,9.987519139989573
1707035047.3715928,0.0,0.0,0.0,0.0,0.0015978966540475428,0.0010652644360316951,0.0002663161090079238,-2.5791992187500004,-0.1244140625,9.62294921875,0.0,0.0,0.0,0.0,0.0,0.0,0.0,0.0,0.0,0.0,0.0,0.0,0.0,0.0,0.0,0.0,0.0,0.0,0.0,0.0,0.0,0.0,0.0,0.0,0.0,0.0,0.0,0.010233113018474072,-0.1244140625,9.962595824384316
1707035047.3731291,0.0,0.0,0.0,0.0,0.001331580545039619,0.0021305288720633903,0.0002663161090079238,-2.6031250000000004,-0.1184326171875,9.663623046875,0.0,0.0,0.0,0.0,0.0,0.0,0.0,0.0,0.0,0.0,0.0,0.0,0.0,0.0,0.0,0.0,0.0,0.0,0.0,0.0,0.0,0.0,0.0,0.0,0.0,0.0,0.0,-0.0023002796556617078,-0.1184326171875,10.008089970940118
1707035047.4013116,0.0,0.0,0.0,0.0,-0.0002663161090079238,0.002663161090079238,0.001331580545039619,-2.624658203125,-0.11962890625,9.646875,0.0,0.0,0.0,0.0,0.0,0.0,0.0,0.0,0.0,0.0,0.0,0.0,0.0,0.0,0.0,0.0,0.0,0.0,0.0,0.0,0.0,0.0,0.0,0.0,0.0,0.0,0.0,-0.02744610560525995,-0.11962890625,9.997513423854127
1707035047.4023778,0.0,0.0,0.0,0.0,-0.0002663161090079238,0.0007989483270237714,0.0010652644360316951,-2.6234619140625,-0.1303955078125,9.6361083984375,0.0,0.0,0.0,0.0,0.0,0.0,0.0,0.0,0.0,0.0,0.0,0.0,0.0,0.0,0.0,0.0,0.0,0.0,0.0,0.0,0.0,0.0,0.0,0.0,0.0,0.0,0.0,-0.029088945827226098,-0.1303955078125,9.986805861445633
1707035047.403463,0.0,0.0,0.0,0.0,0.0005326322180158476,0.0002663161090079238,0.0007989483270237714,-2.6019287109375,-0.112451171875,9.654052734375,0.0,0.0,0.0,0.0,0.0,0.0,0.0,0.0,0.0,0.0,0.0,0.0,0.0,0.0,0.0,0.0,0.0,0.0,0.0,0.0,0.0,0.0,0.0,0.0,0.0,0.0,0.0,-0.0036322281165759307,-0.112451171875,9.998537594159117
1707035047.4208117,0.0,0.0,0.0,0.0,0.0002663161090079238,0.0002663161090079238,0.0005326322180158476,-2.5791992187500004,-0.12680664062500002,9.639697265625,0.0,0.0,0.0,0.0,0.0,0.0,0.0,0.0,0.0,0.0,0.0,0.0,0.0,0.0,0.0,0.0,0.0,0.0,0.0,0.0,0.0,0.0,0.0,0.0,0.0,0.0,0.0,0.014585597673188566,-0.12680664062500002,9.978768423169225
1707035047.4218917,0.0,0.0,0.0,0.0,-0.0005326322180158476,0.0,0.0002663161090079238,-2.5684326171875,-0.12680664062500002,9.638500976562499,0.0,0.0,0.0,0.0,0.0,0.0,0.0,0.0,0.0,0.0,0.0,0.0,0.0,0.0,0.0,0.0,0.0,0.0,0.0,0.0,0.0,0.0,0.0,0.0,0.0,0.0,0.0,0.02467137655958007,-0.12680664062500002,9.97481521169227
1707035047.422942,0.0,0.0,0.0,0.0,0.0005326322180158476,0.0010652644360316951,0.0005326322180158476,-2.572021484375,-0.1280029296875,9.644482421875,0.0,0.0,0.0,0.0,0.0,0.0,0.0,0.0,0.0,0.0,0.0,0.0,0.0,0.0,0.0,0.0,0.0,0.0,0.0,0.0,0.0,0.0,0.0,0.0,0.0,0.0,0.0,0.022760278482354845,-0.1280029296875,9.981523815112894
1707035047.4606447,0.0,0.0,0.0,0.0,0.0007989483270237714,0.0018642127630554663,0.0015978966540475428,-2.5803955078125,-0.1435546875,9.6373046875,0.0,0.0,0.0,0.0,0.0,0.0,0.0,0.0,0.0,0.0,0.0,0.0,0.0,0.0,0.0,0.0,0.0,0.0,0.0,0.0,0.0,0.0,0.0,0.0,0.0,0.0,0.0,0.012808628523593768,-0.1435546875,9.97676894367529
1707035047.4617112,0.0,0.0,0.0,0.0,0.0007989483270237714,0.00346210941710301,0.001331580545039619,-2.6067138671875,-0.1232177734375,9.644482421875,0.0,0.0,0.0,0.0,0.0,0.0,0.0,0.0,0.0,0.0,0.0,0.0,0.0,0.0,0.0,0.0,0.0,0.0,0.0,0.0,0.0,0.0,0.0,0.0,0.0,0.0,0.0,-0.010740104714958676,-0.1232177734375,9.990539676183374
1707035047.4627771,0.0,0.0,0.0,0.0,0.001331580545039619,0.0015978966540475428,-0.0002663161090079238,-2.595947265625,-0.1052734375,9.649267578125,0.0,0.0,0.0,0.0,0.0,0.0,0.0,0.0,0.0,0.0,0.0,0.0,0.0,0.0,0.0,0.0,0.0,0.0,0.0,0.0,0.0,0.0,0.0,0.0,0.0,0.0,0.0,0.0009001329766875621,-0.1052734375,9.992362392843887
1707035047.4807856,0.0,0.0,0.0,0.0,0.0007989483270237714,0.0015978966540475428,-0.0005326322180158476,-2.6091064453125004,-0.1112548828125,9.666015625,0.0,0.0,0.0,0.0,0.0,0.0,0.0,0.0,0.0,0.0,0.0,0.0,0.0,0.0,0.0,0.0,0.0,0.0,0.0,0.0,0.0,0.0,0.0,0.0,0.0,0.0,0.0,-0.007454424271027271,-0.1112548828125,10.01195480100036
1707035047.4819138,0.0,0.0,0.0,0.0,0.0015978966540475428,0.0002663161090079238,0.0002663161090079238,-2.6162841796875,-0.1208251953125,9.6313232421875,0.0,0.0,0.0,0.0,0.0,0.0,0.0,0.0,0.0,0.0,0.0,0.0,0.0,0.0,0.0,0.0,0.0,0.0,0.0,0.0,0.0,0.0,0.0,0.0,0.0,0.0,0.0,-0.023401399106468546,-0.1208251953125,9.980319768369352
1707035047.483,0.0,0.0,0.0,0.0,0.0010652644360316951,0.0018642127630554663,-0.0007989483270237714,-2.6091064453125004,-0.1112548828125,9.6600341796875,0.0,0.0,0.0,0.0,0.0,0.0,0.0,0.0,0.0,0.0,0.0,0.0,0.0,0.0,0.0,0.0,0.0,0.0,0.0,0.0,0.0,0.0,0.0,0.0,0.0,0.0,0.0,-0.009008883076282448,-0.1112548828125,10.006178872862893
1707035047.5207078,0.0,0.0,0.0,0.0,0.0007989483270237714,0.0018642127630554663,0.0007989483270237714,-2.5935546875,-0.1016845703125,9.6337158203125,0.0,0.0,0.0,0.0,0.0,0.0,0.0,0.0,0.0,0.0,0.0,0.0,0.0,0.0,0.0,0.0,0.0,0.0,0.0,0.0,0.0,0.0,0.0,0.0,0.0,0.0,0.0,-0.00083108866198911,-0.1016845703125,9.97672319616437
1707035047.5217795,0.0,0.0,0.0,0.0,0.0005326322180158476,0.0023968449810713144,0.0007989483270237714,-2.6306396484375,-0.1040771484375,9.66123046875,0.0,0.0,0.0,0.0,0.0,0.0,0.0,0.0,0.0,0.0,0.0,0.0,0.0,0.0,0.0,0.0,0.0,0.0,0.0,0.0,0.0,0.0,0.0,0.0,0.0,0.0,0.0,-0.029491332610115606,-0.1040771484375,10.012930110189304
1707035047.5228488,0.0,0.0,0.0,0.0,0.0002663161090079238,0.001331580545039619,0.0,-2.6150878906250004,-0.1208251953125,9.6576416015625,0.0,0.0,0.0,0.0,0.0,0.0,0.0,0.0,0.0,0.0,0.0,0.0,0.0,0.0,0.0,0.0,0.0,0.0,0.0,0.0,0.0,0.0,0.0,0.0,0.0,0.0,0.0,-0.015406594735852597,-0.1208251953125,10.00542296041316
1707035047.5404823,0.0,0.0,0.0,0.0,0.0007989483270237714,0.0005326322180158476,0.0010652644360316951,-2.5995361328125,-0.122021484375,9.6373046875,0.0,0.0,0.0,0.0,0.0,0.0,0.0,0.0,0.0,0.0,0.0,0.0,0.0,0.0,0.0,0.0,0.0,0.0,0.0,0.0,0.0,0.0,0.0,0.0,0.0,0.0,0.0,-0.005674341516303638,-0.122021484375,9.981743211852107
1707035047.5416312,0.0,0.0,0.0,0.0,0.0007989483270237714,0.002663161090079238,0.0005326322180158476,-2.6091064453125004,-0.1136474609375,9.610986328125,0.0,0.0,0.0,0.0,0.0,0.0,0.0,0.0,0.0,0.0,0.0,0.0,0.0,0.0,0.0,0.0,0.0,0.0,0.0,0.0,0.0,0.0,0.0,0.0,0.0,0.0,0.0,-0.02175544527937534,-0.1136474609375,9.958816262135656
1707035047.542699,0.0,0.0,0.0,0.0,0.0,0.00346210941710301,0.0010652644360316951,-2.5947509765625,-0.1064697265625,9.6337158203125,0.0,0.0,0.0,0.0,0.0,0.0,0.0,0.0,0.0,0.0,0.0,0.0,0.0,0.0,0.0,0.0,0.0,0.0,0.0,0.0,0.0,0.0,0.0,0.0,0.0,0.0,0.0,-0.0019862742894827257,-0.1064697265625,9.977034087925421
1707035047.5808284,0.0,0.0,0.0,0.0,0.0,0.0021305288720633903,0.0007989483270237714,-2.634228515625,-0.1423583984375,9.6600341796875,0.0,0.0,0.0,0.0,0.0,0.0,0.0,0.0,0.0,0.0,0.0,0.0,0.0,0.0,0.0,0.0,0.0,0.0,0.0,0.0,0.0,0.0,0.0,0.0,0.0,0.0,0.0,-0.033267781253647044,-0.1423583984375,10.012707599844966
1707035047.581895,0.0,0.0,0.0,0.0,0.0002663161090079238,0.0010652644360316951,0.0002663161090079238,-2.6067138671875,-0.131591796875,9.643286132812499,0.0,0.0,0.0,0.0,0.0,0.0,0.0,0.0,0.0,0.0,0.0,0.0,0.0,0.0,0.0,0.0,0.0,0.0,0.0,0.0,0.0,0.0,0.0,0.0,0.0,0.0,0.0,-0.011050996476010155,-0.131591796875,9.989384490555878
1707035047.582945,0.0,0.0,0.0,0.0,0.0002663161090079238,0.0010652644360316951,0.0,-2.6126953125,-0.1423583984375,9.646875,0.0,0.0,0.0,0.0,0.0,0.0,0.0,0.0,0.0,0.0,0.0,0.0,0.0,0.0,0.0,0.0,0.0,0.0,0.0,0.0,0.0,0.0,0.0,0.0,0.0,0.0,0.0,-0.015894249330324683,-0.1423583984375,9.994404506243615
1707035047.6005566,0.0,0.0,0.0,0.0,0.0,0.0005326322180158476,-0.0002663161090079238,-2.6031250000000004,-0.1052734375,9.6480712890625,0.0,0.0,0.0,0.0,0.0,0.0,0.0,0.0,0.0,0.0,0.0,0.0,0.0,0.0,0.0,0.0,0.0,0.0,0.0,0.0,0.0,0.0,0.0,0.0,0.0,0.0,0.0,-0.006341872549325167,-0.1052734375,9.993072557782702
1707035047.6016583,0.0,0.0,0.0,0.0,0.0005326322180158476,0.0005326322180158476,0.0002663161090079238,-2.586376953125,-0.1184326171875,9.65166015625,0.0,0.0,0.0,0.0,0.0,0.0,0.0,0.0,0.0,0.0,0.0,0.0,0.0,0.0,0.0,0.0,0.0,0.0,0.0,0.0,0.0,0.0,0.0,0.0,0.0,0.0,0.0,0.010763401518738114,-0.1184326171875,9.992185630010466
1707035047.6027265,0.0,0.0,0.0,0.0,0.0007989483270237714,0.0002663161090079238,0.0,-2.5899658203125,-0.133984375,9.6504638671875,0.0,0.0,0.0,0.0,0.0,0.0,0.0,0.0,0.0,0.0,0.0,0.0,0.0,0.0,0.0,0.0,0.0,0.0,0.0,0.0,0.0,0.0,0.0,0.0,0.0,0.0,0.0,0.006986952875206676,-0.133984375,9.991963119666128
1707035047.6407216,0.0,0.0,0.0,0.0,0.0005326322180158476,0.0010652644360316951,0.0,-2.5935546875,-0.11962890625,9.6528564453125,0.0,0.0,0.0,0.0,0.0,0.0,0.0,0.0,0.0,0.0,0.0,0.0,0.0,0.0,0.0,0.0,0.0,0.0,0.0,0.0,0.0,0.0,0.0,0.0,0.0,0.0,0.0,0.004143179514827899,-0.11962890625,9.995206166204266
1707035047.64179,0.0,0.0,0.0,0.0,0.0005326322180158476,0.0010652644360316951,-0.0002663161090079238,-2.5756103515625,-0.12680664062500002,9.6337158203125,0.0,0.0,0.0,0.0,0.0,0.0,0.0,0.0,0.0,0.0,0.0,0.0,0.0,0.0,0.0,0.0,0.0,0.0,0.0,0.0,0.0,0.0,0.0,0.0,0.0,0.0,0.0,0.016496695750414236,-0.12680664062500002,9.972059819748605
1707035047.6428404,0.0,0.0,0.0,0.0,0.0015978966540475428,0.002663161090079238,-0.0002663161090079238,-2.5995361328125,-0.11484375,9.646875,0.0,0.0,0.0,0.0,0.0,0.0,0.0,0.0,0.0,0.0,0.0,0.0,0.0,0.0,0.0,0.0,0.0,0.0,0.0,0.0,0.0,0.0,0.0,0.0,0.0,0.0,0.0,-0.0031872074278953555,-0.11484375,9.990984696872054
1707035047.6609232,0.0,0.0,0.0,0.0,0.0010652644360316951,0.0023968449810713144,-0.0002663161090079238,-2.605517578125,-0.1088623046875,9.658837890625,0.0,0.0,0.0,0.0,0.0,0.0,0.0,0.0,0.0,0.0,0.0,0.0,0.0,0.0,0.0,0.0,0.0,0.0,0.0,0.0,0.0,0.0,0.0,0.0,0.0,0.0,0.0,-0.005854217954852636,-0.1088623046875,10.004091011952246
1707035047.6619864,0.0,0.0,0.0,0.0,0.0005326322180158476,0.0005326322180158476,0.0005326322180158476,-2.572021484375,-0.1351806640625,9.6289306640625,0.0,0.0,0.0,0.0,0.0,0.0,0.0,0.0,0.0,0.0,0.0,0.0,0.0,0.0,0.0,0.0,0.0,0.0,0.0,0.0,0.0,0.0,0.0,0.0,0.0,0.0,0.0,0.018718685588690942,-0.1351806640625,9.966506401955476
1707035047.6731017,0.0,0.0,0.0,0.0,0.0007989483270237714,0.0015978966540475428,0.0007989483270237714,-2.5780029296875,-0.12680664062500002,9.6361083984375,0.0,0.0,0.0,0.0,0.0,0.0,0.0,0.0,0.0,0.0,0.0,0.0,0.0,0.0,0.0,0.0,0.0,0.0,0.0,0.0,0.0,0.0,0.0,0.0,0.0,0.0,0.0,0.014808108017529964,-0.12680664062500002,9.974991974525693
1707035047.700605,0.0,0.0,0.0,0.0,0.0005326322180158476,0.0015978966540475428,0.001331580545039619,-2.5851806640625004,-0.117236328125,9.644482421875,0.0,0.0,0.0,0.0,0.0,0.0,0.0,0.0,0.0,0.0,0.0,0.0,0.0,0.0,0.0,0.0,0.0,0.0,0.0,0.0,0.0,0.0,0.0,0.0,0.0,0.0,0.0,0.010053236579925073,-0.117236328125,9.984943624484456
1707035047.7016685,0.0,0.0,0.0,0.0,0.0007989483270237714,0.002929477199087161,0.001331580545039619,-2.595947265625,-0.12919921875,9.634912109375,0.0,0.0,0.0,0.0,0.0,0.0,0.0,0.0,0.0,0.0,0.0,0.0,0.0,0.0,0.0,0.0,0.0,0.0,0.0,0.0,0.0,0.0,0.0,0.0,0.0,0.0,0.0,-0.002830568155925306,-0.12919921875,9.978500165313964
1707035047.7027307,0.0,0.0,0.0,0.0,0.0010652644360316951,0.0021305288720633903,0.0015978966540475428,-2.60791015625,-0.122021484375,9.6528564453125,0.0,0.0,0.0,0.0,0.0,0.0,0.0,0.0,0.0,0.0,0.0,0.0,0.0,0.0,0.0,0.0,0.0,0.0,0.0,0.0,0.0,0.0,0.0,0.0,0.0,0.0,0.0,-0.009719048015095044,-0.122021484375,9.998936867336878
1707035047.7214675,0.0,0.0,0.0,0.0,0.0002663161090079238,0.0007989483270237714,0.0002663161090079238,-2.5744140625,-0.1208251953125,9.630126953125,0.0,0.0,0.0,0.0,0.0,0.0,0.0,0.0,0.0,0.0,0.0,0.0,0.0,0.0,0.0,0.0,0.0,0.0,0.0,0.0,0.0,0.0,0.0,0.0,0.0,0.0,0.0,0.01671920609475519,-0.1208251953125,9.968283371105073
1707035047.7225416,0.0,0.0,0.0,0.0,0.0015978966540475428,0.002929477199087161,0.0005326322180158476,-2.5995361328125,-0.1040771484375,9.664819335937501,0.0,0.0,0.0,0.0,0.0,0.0,0.0,0.0,0.0,0.0,0.0,0.0,0.0,0.0,0.0,0.0,0.0,0.0,0.0,0.0,0.0,0.0,0.0,0.0,0.0,0.0,0.0,0.0014761689878706186,-0.1040771484375,10.00831248128446
1707035047.7236228,0.0,0.0,0.0,0.0,0.0005326322180158476,0.0015978966540475428,0.0007989483270237714,-2.60791015625,-0.1184326171875,9.640893554687501,0.0,0.0,0.0,0.0,0.0,0.0,0.0,0.0,0.0,0.0,0.0,0.0,0.0,0.0,0.0,0.0,0.0,0.0,0.0,0.0,0.0,0.0,0.0,0.0,0.0,0.0,0.0,-0.012827965625605398,-0.1184326171875,9.987385011061946
1707035047.7606523,0.0,0.0,0.0,0.0,0.0007989483270237714,0.0015978966540475428,0.0010652644360316951,-2.610302734375,-0.13278808593750002,9.6552490234375,0.0,0.0,0.0,0.0,0.0,0.0,0.0,0.0,0.0,0.0,0.0,0.0,0.0,0.0,0.0,0.0,0.0,0.0,0.0,0.0,0.0,0.0,0.0,0.0,0.0,0.0,0.0,-0.01140763574797976,-0.13278808593750002,10.00186902211397
1707035047.7617157,0.0,0.0,0.0,0.0,-0.0002663161090079238,0.0021305288720633903,0.001331580545039619,-2.61748046875,-0.11962890625,9.658837890625,0.0,0.0,0.0,0.0,0.0,0.0,0.0,0.0,0.0,0.0,0.0,0.0,0.0,0.0,0.0,0.0,0.0,0.0,0.0,0.0,0.0,0.0,0.0,0.0,0.0,0.0,0.0,-0.01740607422978835,-0.11962890625,10.007199929562756
1707035047.7641437,0.0,0.0,0.0,0.0,0.0002663161090079238,0.0007989483270237714,0.0005326322180158476,-2.5875732421875,-0.11962890625,9.646875,0.0,0.0,0.0,0.0,0.0,0.0,0.0,0.0,0.0,0.0,0.0,0.0,0.0,0.0,0.0,0.0,0.0,0.0,0.0,0.0,0.0,0.0,0.0,0.0,0.0,0.0,0.0,0.008364648847040357,-0.11962890625,9.987875779261543
1707035047.7818556,0.0,0.0,0.0,0.0,0.0,0.0018642127630554663,0.0,-2.6067138671875,-0.1160400390625,9.64208984375,0.0,0.0,0.0,0.0,0.0,0.0,0.0,0.0,0.0,0.0,0.0,0.0,0.0,0.0,0.0,0.0,0.0,0.0,0.0,0.0,0.0,0.0,0.0,0.0,0.0,0.0,0.0,-0.011361888237060747,-0.1160400390625,9.988229304928385
1707035047.782926,0.0,0.0,0.0,0.0,0.0005326322180158476,0.0007989483270237714,0.0002663161090079238,-2.595947265625,-0.1244140625,9.6313232421875,0.0,0.0,0.0,0.0,0.0,0.0,0.0,0.0,0.0,0.0,0.0,0.0,0.0,0.0,0.0,0.0,0.0,0.0,0.0,0.0,0.0,0.0,0.0,0.0,0.0,0.0,0.0,-0.003763243439077968,-0.1244140625,9.975034608431486
1707035047.7839987,0.0,0.0,0.0,0.0,0.0005326322180158476,0.0005326322180158476,0.0005326322180158476,-2.605517578125,-0.1232177734375,9.6313232421875,0.0,0.0,0.0,0.0,0.0,0.0,0.0,0.0,0.0,0.0,0.0,0.0,0.0,0.0,0.0,0.0,0.0,0.0,0.0,0.0,0.0,0.0,0.0,0.0,0.0,0.0,0.0,-0.013004728459026449,-0.1232177734375,9.977521742519894
1707035047.8205614,0.0,0.0,0.0,0.0,0.0007989483270237714,0.001331580545039619,0.0007989483270237714,-2.6126953125,-0.1244140625,9.646875,0.0,0.0,0.0,0.0,0.0,0.0,0.0,0.0,0.0,0.0,0.0,0.0,0.0,0.0,0.0,0.0,0.0,0.0,0.0,0.0,0.0,0.0,0.0,0.0,0.0,0.0,0.0,-0.015894249330324683,-0.1244140625,9.994404506243615
1707035047.8216367,0.0,0.0,0.0,0.0,0.0002663161090079238,0.001331580545039619,0.001331580545039619,-2.6306396484375,-0.1160400390625,9.662426757812499,0.0,0.0,0.0,0.0,0.0,0.0,0.0,0.0,0.0,0.0,0.0,0.0,0.0,0.0,0.0,0.0,0.0,0.0,0.0,0.0,0.0,0.0,0.0,0.0,0.0,0.0,0.0,-0.029180440849065015,-0.1160400390625,10.014085295816797
1707035047.8226826,0.0,0.0,0.0,0.0,-0.0007989483270237714,0.0002663161090079238,0.0002663161090079238,-2.5971435546875004,-0.1136474609375,9.63251953125,0.0,0.0,0.0,0.0,0.0,0.0,0.0,0.0,0.0,0.0,0.0,0.0,0.0,0.0,0.0,0.0,0.0,0.0,0.0,0.0,0.0,0.0,0.0,0.0,0.0,0.0,0.0,-0.004607537305520992,-0.1136474609375,9.97650068582003
1707035047.842462,0.0,0.0,0.0,0.0,0.0005326322180158476,0.001331580545039619,0.0005326322180158476,-2.5875732421875,-0.1208251953125,9.640893554687501,0.0,0.0,0.0,0.0,0.0,0.0,0.0,0.0,0.0,0.0,0.0,0.0,0.0,0.0,0.0,0.0,0.0,0.0,0.0,0.0,0.0,0.0,0.0,0.0,0.0,0.0,0.0,0.00681019004178518,-0.1208251953125,9.982099851124078
1707035047.8435323,0.0,0.0,0.0,0.0,0.0005326322180158476,0.0015978966540475428,0.0015978966540475428,-2.6138916015625,-0.12680664062500002,9.658837890625,0.0,0.0,0.0,0.0,0.0,0.0,0.0,0.0,0.0,0.0,0.0,0.0,0.0,0.0,0.0,0.0,0.0,0.0,0.0,0.0,0.0,0.0,0.0,0.0,0.0,0.0,0.0,-0.013940517347307502,-0.12680664062500002,10.006267254279603
1707035047.8445964,0.0,0.0,0.0,0.0,0.0007989483270237714,0.0010652644360316951,0.001331580545039619,-2.6126953125,-0.093310546875,9.646875,0.0,0.0,0.0,0.0,0.0,0.0,0.0,0.0,0.0,0.0,0.0,0.0,0.0,0.0,0.0,0.0,0.0,0.0,0.0,0.0,0.0,0.0,0.0,0.0,0.0,0.0,0.0,-0.015894249330324683,-0.093310546875,9.994404506243615
1707035047.8810973,0.0,0.0,0.0,0.0,0.0007989483270237714,0.0007989483270237714,0.001331580545039619,-2.5911621093750004,-0.13876953125000002,9.6528564453125,0.0,0.0,0.0,0.0,0.0,0.0,0.0,0.0,0.0,0.0,0.0,0.0,0.0,0.0,0.0,0.0,0.0,0.0,0.0,0.0,0.0,0.0,0.0,0.0,0.0,0.0,0.0,0.0064535507698146866,-0.13876953125000002,9.994584382682165
1707035047.8821795,0.0,0.0,0.0,0.0,0.0007989483270237714,-0.0002663161090079238,-0.0002663161090079238,-2.5708251953125,-0.11962890625,9.6265380859375,0.0,0.0,0.0,0.0,0.0,0.0,0.0,0.0,0.0,0.0,0.0,0.0,0.0,0.0,0.0,0.0,0.0,0.0,0.0,0.0,0.0,0.0,0.0,0.0,0.0,0.0,0.0,0.01925208769408293,-0.11962890625,9.96388513893944
1707035047.883258,0.0,0.0,0.0,0.0,0.0005326322180158476,0.0023968449810713144,0.0002663161090079238,-2.5672363281250004,-0.131591796875,9.6337158203125,0.0,0.0,0.0,0.0,0.0,0.0,0.0,0.0,0.0,0.0,0.0,0.0,0.0,0.0,0.0,0.0,0.0,0.0,0.0,0.0,0.0,0.0,0.0,0.0,0.0,0.0,0.0,0.024582995142869102,-0.131591796875,9.969883577421246
1707035047.9213052,0.0,0.0,0.0,0.0,0.0010652644360316951,0.003994741635118856,0.0010652644360316951,-2.6126953125,-0.13278808593750002,9.644482421875,0.0,0.0,0.0,0.0,0.0,0.0,0.0,0.0,0.0,0.0,0.0,0.0,0.0,0.0,0.0,0.0,0.0,0.0,0.0,0.0,0.0,0.0,0.0,0.0,0.0,0.0,0.0,-0.016516032852426754,-0.13278808593750002,9.99209413498863
1707035047.922377,0.0,0.0,0.0,0.0,0.0005326322180158476,0.002929477199087161,0.0015978966540475428,-2.6330322265625004,-0.1112548828125,9.6564453125,0.0,0.0,0.0,0.0,0.0,0.0,0.0,0.0,0.0,0.0,0.0,0.0,0.0,0.0,0.0,0.0,0.0,0.0,0.0,0.0,0.0,0.0,0.0,0.0,0.0,0.0,0.0,-0.03304527090930698,-0.1112548828125,10.008931151201432
1707035047.9292376,0.0,0.0,0.0,0.0,0.0007989483270237714,0.001331580545039619,0.0007989483270237714,-2.5875732421875,-0.1280029296875,9.6265380859375,0.0,0.0,0.0,0.0,0.0,0.0,0.0,0.0,0.0,0.0,0.0,0.0,0.0,0.0,0.0,0.0,0.0,0.0,0.0,0.0,0.0,0.0,0.0,0.0,0.0,0.0,0.0,0.003079488909172756,-0.1280029296875,9.968237623594154
1707035047.9409633,0.0,0.0,0.0,0.0,0.0007989483270237714,0.001331580545039619,-0.0002663161090079238,-2.5971435546875004,-0.1112548828125,9.6337158203125,0.0,0.0,0.0,0.0,0.0,0.0,0.0,0.0,0.0,0.0,0.0,0.0,0.0,0.0,0.0,0.0,0.0,0.0,0.0,0.0,0.0,0.0,0.0,0.0,0.0,0.0,0.0,-0.004296645544470401,-0.1112548828125,9.977655871447523
1707035047.9420347,0.0,0.0,0.0,0.0,0.0010652644360316951,0.0021305288720633903,0.0,-2.58876953125,-0.1160400390625,9.644482421875,0.0,0.0,0.0,0.0,0.0,0.0,0.0,0.0,0.0,0.0,0.0,0.0,0.0,0.0,0.0,0.0,0.0,0.0,0.0,0.0,0.0,0.0,0.0,0.0,0.0,0.0,0.0,0.0065876796974446705,-0.1160400390625,9.98587629976761
1707035047.9431033,0.0,0.0,0.0,0.0,0.0005326322180158476,0.001331580545039619,-0.0002663161090079238,-2.6162841796875,-0.107666015625,9.6576416015625,0.0,0.0,0.0,0.0,0.0,0.0,0.0,0.0,0.0,0.0,0.0,0.0,0.0,0.0,0.0,0.0,0.0,0.0,0.0,0.0,0.0,0.0,0.0,0.0,0.0,0.0,0.0,-0.01656178036334577,-0.107666015625,10.00573385217421
1707035047.9808965,0.0,0.0,0.0,0.0,0.0005326322180158476,0.0005326322180158476,0.0002663161090079238,-2.586376953125,-0.11962890625,9.6313232421875,0.0,0.0,0.0,0.0,0.0,0.0,0.0,0.0,0.0,0.0,0.0,0.0,0.0,0.0,0.0,0.0,0.0,0.0,0.0,0.0,0.0,0.0,0.0,0.0,0.0,0.0,0.0,0.005478241580870957,-0.11962890625,9.972547474343076
1707035047.981998,0.0,0.0,0.0,0.0,0.0005326322180158476,0.0007989483270237714,0.0007989483270237714,-2.586376953125,-0.1280029296875,9.639697265625,0.0,0.0,0.0,0.0,0.0,0.0,0.0,0.0,0.0,0.0,0.0,0.0,0.0,0.0,0.0,0.0,0.0,0.0,0.0,0.0,0.0,0.0,0.0,0.0,0.0,0.0,0.0,0.0076544839082277605,-0.1280029296875,9.98063377373553
1707035047.9830658,0.0,0.0,0.0,0.0,0.0005326322180158476,0.0015978966540475428,0.0007989483270237714,-2.6138916015625,-0.133984375,9.6373046875,0.0,0.0,0.0,0.0,0.0,0.0,0.0,0.0,0.0,0.0,0.0,0.0,0.0,0.0,0.0,0.0,0.0,0.0,0.0,0.0,0.0,0.0,0.0,0.0,0.0,0.0,0.0,-0.019536569046226138,-0.133984375,9.98547391298472
1707035048.0008144,0.0,0.0,0.0,0.0,0.0005326322180158476,0.0018642127630554663,0.0005326322180158476,-2.6150878906250004,-0.112451171875,9.638500976562499,0.0,0.0,0.0,0.0,0.0,0.0,0.0,0.0,0.0,0.0,0.0,0.0,0.0,0.0,0.0,0.0,0.0,0.0,0.0,0.0,0.0,0.0,0.0,0.0,0.0,0.0,0.0,-0.020380862912669606,-0.112451171875,9.986939990373262
1707035048.0018775,0.0,0.0,0.0,0.0,0.0002663161090079238,0.001331580545039619,0.0,-2.6126953125,-0.1112548828125,9.6504638671875,0.0,0.0,0.0,0.0,0.0,0.0,0.0,0.0,0.0,0.0,0.0,0.0,0.0,0.0,0.0,0.0,0.0,0.0,0.0,0.0,0.0,0.0,0.0,0.0,0.0,0.0,0.0,-0.014961574047171577,-0.1112548828125,9.997870063126097
1707035048.0029411,0.0,0.0,0.0,0.0,0.0010652644360316951,0.0007989483270237714,0.0007989483270237714,-2.5935546875,-0.13278808593750002,9.627734375,0.0,0.0,0.0,0.0,0.0,0.0,0.0,0.0,0.0,0.0,0.0,0.0,0.0,0.0,0.0,0.0,0.0,0.0,0.0,0.0,0.0,0.0,0.0,0.0,0.0,0.0,0.0,-0.0023855474672442867,-0.13278808593750002,9.970947268026901
1707035048.0407987,0.0,0.0,0.0,0.0,0.0007989483270237714,0.0007989483270237714,0.0010652644360316951,-2.5875732421875,-0.133984375,9.6552490234375,0.0,0.0,0.0,0.0,0.0,0.0,0.0,0.0,0.0,0.0,0.0,0.0,0.0,0.0,0.0,0.0,0.0,0.0,0.0,0.0,0.0,0.0,0.0,0.0,0.0,0.0,0.0,0.010540891174397604,-0.133984375,9.995962078654
1707035048.0418603,0.0,0.0,0.0,0.0,0.001331580545039619,0.0005326322180158476,0.0002663161090079238,-2.5899658203125,-0.12919921875,9.643286132812499,0.0,0.0,0.0,0.0,0.0,0.0,0.0,0.0,0.0,0.0,0.0,0.0,0.0,0.0,0.0,0.0,0.0,0.0,0.0,0.0,0.0,0.0,0.0,0.0,0.0,0.0,0.0,0.0051216023089000196,-0.12919921875,9.985032005901164
1707035048.042909,0.0,0.0,0.0,0.0,0.0007989483270237714,0.0015978966540475428,0.0010652644360316951,-2.5911621093750004,-0.11484375,9.63251953125,0.0,0.0,0.0,0.0,0.0,0.0,0.0,0.0,0.0,0.0,0.0,0.0,0.0,0.0,0.0,0.0,0.0,0.0,0.0,0.0,0.0,0.0,0.0,0.0,0.0,0.0,0.0,0.001168390831947086,-0.11484375,9.974946227014776
1707035048.0623903,0.0,0.0,0.0,0.0,0.0010652644360316951,0.0018642127630554663,0.0015978966540475428,-2.581591796875,-0.1064697265625,9.646875,0.0,0.0,0.0,0.0,0.0,0.0,0.0,0.0,0.0,0.0,0.0,0.0,0.0,0.0,0.0,0.0,0.0,0.0,0.0,0.0,0.0,0.0,0.0,0.0,0.0,0.0,0.0,0.014140576984507991,-0.1064697265625,9.986321320456288
1707035048.0634077,0.0,0.0,0.0,0.0,0.0005326322180158476,0.002929477199087161,0.0015978966540475428,-2.5899658203125,-0.141162109375,9.646875,0.0,0.0,0.0,0.0,0.0,0.0,0.0,0.0,0.0,0.0,0.0,0.0,0.0,0.0,0.0,0.0,0.0,0.0,0.0,0.0,0.0,0.0,0.0,0.0,0.0,0.0,0.0,0.00605427759205357,-0.141162109375,9.988497562783646
1707035048.06446,0.0,0.0,0.0,0.0,0.0005326322180158476,0.002663161090079238,0.001331580545039619,-2.586376953125,-0.1184326171875,9.6576416015625,0.0,0.0,0.0,0.0,0.0,0.0,0.0,0.0,0.0,0.0,0.0,0.0,0.0,0.0,0.0,0.0,0.0,0.0,0.0,0.0,0.0,0.0,0.0,0.0,0.0,0.0,0.0,0.012317860323993735,-0.1184326171875,9.997961558147933
1707035048.1009371,0.0,0.0,0.0,0.0,-0.0007989483270237714,0.0010652644360316951,0.0002663161090079238,-2.5899658203125,-0.11484375,9.662426757812499,0.0,0.0,0.0,0.0,0.0,0.0,0.0,0.0,0.0,0.0,0.0,0.0,0.0,0.0,0.0,0.0,0.0,0.0,0.0,0.0,0.0,0.0,0.0,0.0,0.0,0.0,0.0,0.010095870485716585,-0.11484375,10.003514975941062
1707035048.1020002,0.0,0.0,0.0,0.0,-0.0002663161090079238,0.0007989483270237714,0.0002663161090079238,-2.6031250000000004,-0.117236328125,9.6564453125,0.0,0.0,0.0,0.0,0.0,0.0,0.0,0.0,0.0,0.0,0.0,0.0,0.0,0.0,0.0,0.0,0.0,0.0,0.0,0.0,0.0,0.0,0.0,0.0,0.0,0.0,0.0,-0.00416563022196792,-0.117236328125,10.001158857175156
1707035048.1030648,0.0,0.0,0.0,0.0,0.0,0.0005326322180158476,0.0007989483270237714,-2.5935546875,-0.11484375,9.6313232421875,0.0,0.0,0.0,0.0,0.0,0.0,0.0,0.0,0.0,0.0,0.0,0.0,0.0,0.0,0.0,0.0,0.0,0.0,0.0,0.0,0.0,0.0,0.0,0.0,0.0,0.0,0.0,-0.0014528721840907366,-0.11484375,9.974412824909383
1707035048.1218245,0.0,0.0,0.0,0.0,0.0002663161090079238,0.0005326322180158476,0.0007989483270237714,-2.605517578125,-0.1136474609375,9.6576416015625,0.0,0.0,0.0,0.0,0.0,0.0,0.0,0.0,0.0,0.0,0.0,0.0,0.0,0.0,0.0,0.0,0.0,0.0,0.0,0.0,0.0,0.0,0.0,0.0,0.0,0.0,0.0,-0.006165109715903672,-0.1136474609375,10.002935826324752
1707035048.1231043,0.0,0.0,0.0,0.0,0.0,0.0010652644360316951,0.0,-2.595947265625,-0.122021484375,9.638500976562499,0.0,0.0,0.0,0.0,0.0,0.0,0.0,0.0,0.0,0.0,0.0,0.0,0.0,0.0,0.0,0.0,0.0,0.0,0.0,0.0,0.0,0.0,0.0,0.0,0.0,0.0,0.0,-0.0018978928727722,-0.122021484375,9.981965722196446
1707035048.1241908,0.0,0.0,0.0,0.0,0.0005326322180158476,0.0015978966540475428,0.0010652644360316951,-2.5851806640625004,-0.11005859375,9.63251953125,0.0,0.0,0.0,0.0,0.0,0.0,0.0,0.0,0.0,0.0,0.0,0.0,0.0,0.0,0.0,0.0,0.0,0.0,0.0,0.0,0.0,0.0,0.0,0.0,0.0,0.0,0.0,0.00694431896941472,-0.11005859375,9.97339176820952
1707035048.1616988,0.0,0.0,0.0,0.0,0.0,0.002663161090079238,0.001331580545039619,-2.5899658203125,-0.11005859375,9.63251953125,0.0,0.0,0.0,0.0,0.0,0.0,0.0,0.0,0.0,0.0,0.0,0.0,0.0,0.0,0.0,0.0,0.0,0.0,0.0,0.0,0.0,0.0,0.0,0.0,0.0,0.0,0.0,0.0023235764594411457,-0.11005859375,9.974635335253724
1707035048.16277,0.0,0.0,0.0,0.0,0.0002663161090079238,0.0023968449810713144,0.0007989483270237714,-2.5971435546875004,-0.1232177734375,9.620556640625,0.0,0.0,0.0,0.0,0.0,0.0,0.0,0.0,0.0,0.0,0.0,0.0,0.0,0.0,0.0,0.0,0.0,0.0,0.0,0.0,0.0,0.0,0.0,0.0,0.0,0.0,0.0,-0.007716454916031346,-0.1232177734375,9.964948829545094
1707035048.1638367,0.0,0.0,0.0,0.0,0.0007989483270237714,0.0015978966540475428,0.0002663161090079238,-2.6138916015625,-0.11962890625,9.644482421875,0.0,0.0,0.0,0.0,0.0,0.0,0.0,0.0,0.0,0.0,0.0,0.0,0.0,0.0,0.0,0.0,0.0,0.0,0.0,0.0,0.0,0.0,0.0,0.0,0.0,0.0,0.0,-0.017671218479919926,-0.11962890625,9.992405026749681
1707035048.1843517,0.0,0.0,0.0,0.0,0.0002663161090079238,0.0005326322180158476,0.0007989483270237714,-2.6162841796875,-0.13876953125000002,9.62294921875,0.0,0.0,0.0,0.0,0.0,0.0,0.0,0.0,0.0,0.0,0.0,0.0,0.0,0.0,0.0,0.0,0.0,0.0,0.0,0.0,0.0,0.0,0.0,0.0,0.0,0.0,0.0,-0.025577641433826237,-0.13876953125000002,9.972233468976897
1707035048.185396,0.0,0.0,0.0,0.0,0.0007989483270237714,0.0007989483270237714,0.0,-2.6019287109375,-0.1088623046875,9.65166015625,0.0,0.0,0.0,0.0,0.0,0.0,0.0,0.0,0.0,0.0,0.0,0.0,0.0,0.0,0.0,0.0,0.0,0.0,0.0,0.0,0.0,0.0,0.0,0.0,0.0,0.0,0.0,-0.0042540116386784455,-0.1088623046875,9.99622722290413
1707035048.186483,0.0,0.0,0.0,0.0,0.0007989483270237714,0.0005326322180158476,0.0002663161090079238,-2.5780029296875,-0.155517578125,9.63251953125,0.0,0.0,0.0,0.0,0.0,0.0,0.0,0.0,0.0,0.0,0.0,0.0,0.0,0.0,0.0,0.0,0.0,0.0,0.0,0.0,0.0,0.0,0.0,0.0,0.0,0.0,0.0,0.013875432734376858,-0.155517578125,9.971526417643213
1707035048.2209427,0.0,0.0,0.0,0.0,0.0007989483270237714,0.001331580545039619,0.0010652644360316951,-2.5911621093750004,-0.13278808593750002,9.6361083984375,0.0,0.0,0.0,0.0,0.0,0.0,0.0,0.0,0.0,0.0,0.0,0.0,0.0,0.0,0.0,0.0,0.0,0.0,0.0,0.0,0.0,0.0,0.0,0.0,0.0,0.0,0.0,0.002101066115100192,-0.13278808593750002,9.978411783897256
1707035048.2220228,0.0,0.0,0.0,0.0,0.0005326322180158476,0.0021305288720633903,0.0005326322180158476,-2.605517578125,-0.136376953125,9.644482421875,0.0,0.0,0.0,0.0,0.0,0.0,0.0,0.0,0.0,0.0,0.0,0.0,0.0,0.0,0.0,0.0,0.0,0.0,0.0,0.0,0.0,0.0,0.0,0.0,0.0,0.0,0.0,-0.00958491908746506,-0.136376953125,9.990228784422325
1707035048.223106,0.0,0.0,0.0,0.0,0.0010652644360316951,0.0023968449810713144,0.0010652644360316951,-2.610302734375,-0.1112548828125,9.658837890625,0.0,0.0,0.0,0.0,0.0,0.0,0.0,0.0,0.0,0.0,0.0,0.0,0.0,0.0,0.0,0.0,0.0,0.0,0.0,0.0,0.0,0.0,0.0,0.0,0.0,0.0,0.0,-0.010474960464826655,-0.1112548828125,10.00533457899645
1707035048.241232,0.0,0.0,0.0,0.0,0.001331580545039619,0.0010652644360316951,0.0010652644360316951,-2.6126953125,-0.117236328125,9.6504638671875,0.0,0.0,0.0,0.0,0.0,0.0,0.0,0.0,0.0,0.0,0.0,0.0,0.0,0.0,0.0,0.0,0.0,0.0,0.0,0.0,0.0,0.0,0.0,0.0,0.0,0.0,0.0,-0.014961574047171577,-0.117236328125,9.997870063126097
1707035048.2422676,0.0,0.0,0.0,0.0,0.0002663161090079238,0.0,0.0002663161090079238,-2.583984375,-0.131591796875,9.6337158203125,0.0,0.0,0.0,0.0,0.0,0.0,0.0,0.0,0.0,0.0,0.0,0.0,0.0,0.0,0.0,0.0,0.0,0.0,0.0,0.0,0.0,0.0,0.0,0.0,0.0,0.0,0.0,0.008410396357959371,-0.131591796875,9.974236062075962
1707035048.2433348,0.0,0.0,0.0,0.0,-0.0002663161090079238,0.0018642127630554663,0.0,-2.6031250000000004,-0.1184326171875,9.6564453125,0.0,0.0,0.0,0.0,0.0,0.0,0.0,0.0,0.0,0.0,0.0,0.0,0.0,0.0,0.0,0.0,0.0,0.0,0.0,0.0,0.0,0.0,0.0,0.0,0.0,0.0,0.0,-0.00416563022196792,-0.1184326171875,10.001158857175156
1707035048.2804759,0.0,0.0,0.0,0.0,0.0002663161090079238,0.001331580545039619,0.0,-2.5791992187500004,-0.098095703125,9.65166015625,0.0,0.0,0.0,0.0,0.0,0.0,0.0,0.0,0.0,0.0,0.0,0.0,0.0,0.0,0.0,0.0,0.0,0.0,0.0,0.0,0.0,0.0,0.0,0.0,0.0,0.0,0.0,0.01769451528369892,-0.098095703125,9.99032027944416
1707035048.2817163,0.0,0.0,0.0,0.0,0.0010652644360316951,0.0023968449810713144,0.0005326322180158476,-2.5971435546875004,-0.1040771484375,9.669604492187501,0.0,0.0,0.0,0.0,0.0,0.0,0.0,0.0,0.0,0.0,0.0,0.0,0.0,0.0,0.0,0.0,0.0,0.0,0.0,0.0,0.0,0.0,0.0,0.0,0.0,0.0,0.0,0.005030107287061547,-0.1040771484375,10.012311440272331
1707035048.2827804,0.0,0.0,0.0,0.0,-0.0002663161090079238,0.0018642127630554663,0.0010652644360316951,-2.5971435546875004,-0.1112548828125,9.6373046875,0.0,0.0,0.0,0.0,0.0,0.0,0.0,0.0,0.0,0.0,0.0,0.0,0.0,0.0,0.0,0.0,0.0,0.0,0.0,0.0,0.0,0.0,0.0,0.0,0.0,0.0,0.0,-0.003363970261316851,-0.1112548828125,9.981121428330004
1707035048.3004858,0.0,0.0,0.0,0.0,0.0007989483270237714,0.0015978966540475428,0.0015978966540475428,-2.5911621093750004,-0.13278808593750002,9.644482421875,0.0,0.0,0.0,0.0,0.0,0.0,0.0,0.0,0.0,0.0,0.0,0.0,0.0,0.0,0.0,0.0,0.0,0.0,0.0,0.0,0.0,0.0,0.0,0.0,0.0,0.0,0.0,0.004277308442457439,-0.13278808593750002,9.986498083289712
1707035048.3016572,0.0,0.0,0.0,0.0,0.0007989483270237714,0.0015978966540475428,0.0005326322180158476,-2.60791015625,-0.11005859375,9.649267578125,0.0,0.0,0.0,0.0,0.0,0.0,0.0,0.0,0.0,0.0,0.0,0.0,0.0,0.0,0.0,0.0,0.0,0.0,0.0,0.0,0.0,0.0,0.0,0.0,0.0,0.0,0.0,-0.01065172329824815,-0.11005859375,9.995471310454398
1707035048.3027234,0.0,0.0,0.0,0.0,-0.0002663161090079238,0.0010652644360316951,0.0005326322180158476,-2.5923583984375,-0.102880859375,9.6265380859375,0.0,0.0,0.0,0.0,0.0,0.0,0.0,0.0,0.0,0.0,0.0,0.0,0.0,0.0,0.0,0.0,0.0,0.0,0.0,0.0,0.0,0.0,0.0,0.0,0.0,0.0,0.0,-0.0015412536008012623,-0.102880859375,9.969481190638358
1707035048.3411477,0.0,0.0,0.0,0.0,0.0005326322180158476,0.001331580545039619,0.0007989483270237714,-2.581591796875,-0.1160400390625,9.6181640625,0.0,0.0,0.0,0.0,0.0,0.0,0.0,0.0,0.0,0.0,0.0,0.0,0.0,0.0,0.0,0.0,0.0,0.0,0.0,0.0,0.0,0.0,0.0,0.0,0.0,0.0,0.0,0.006679174719282699,-0.1160400390625,9.958596865396444
1707035048.342212,0.0,0.0,0.0,0.0,0.0007989483270237714,0.0021305288720633903,0.0005326322180158476,-2.5875732421875,-0.133984375,9.634912109375,0.0,0.0,0.0,0.0,0.0,0.0,0.0,0.0,0.0,0.0,0.0,0.0,0.0,0.0,0.0,0.0,0.0,0.0,0.0,0.0,0.0,0.0,0.0,0.0,0.0,0.0,0.0,0.005255731236529559,-0.133984375,9.976323922986607
1707035048.3432763,0.0,0.0,0.0,0.0,0.0005326322180158476,0.002663161090079238,0.0,-2.619873046875,-0.1423583984375,9.673193359375,0.0,0.0,0.0,0.0,0.0,0.0,0.0,0.0,0.0,0.0,0.0,0.0,0.0,0.0,0.0,0.0,0.0,0.0,0.0,0.0,0.0,0.0,0.0,0.0,0.0,0.0,0.0,-0.015985744352163156,-0.1423583984375,10.021683940614782
1707035048.360514,0.0,0.0,0.0,0.0,0.0,0.0005326322180158476,0.0,-2.5899658203125,-0.136376953125,9.64208984375,0.0,0.0,0.0,0.0,0.0,0.0,0.0,0.0,0.0,0.0,0.0,0.0,0.0,0.0,0.0,0.0,0.0,0.0,0.0,0.0,0.0,0.0,0.0,0.0,0.0,0.0,0.0,0.004810710547849428,-0.136376953125,9.983876820273672
1707035048.3615763,0.0,0.0,0.0,0.0,0.0005326322180158476,0.0010652644360316951,-0.0002663161090079238,-2.5660400390625,-0.1208251953125,9.625341796875,0.0,0.0,0.0,0.0,0.0,0.0,0.0,0.0,0.0,0.0,0.0,0.0,0.0,0.0,0.0,0.0,0.0,0.0,0.0,0.0,0.0,0.0,0.0,0.0,0.0,0.0,0.0,0.023561938443005914,-0.1208251953125,9.961486386267742
1707035048.362626,0.0,0.0,0.0,0.0,0.0007989483270237714,0.002929477199087161,0.001331580545039619,-2.5935546875,-0.12919921875,9.634912109375,0.0,0.0,0.0,0.0,0.0,0.0,0.0,0.0,0.0,0.0,0.0,0.0,0.0,0.0,0.0,0.0,0.0,0.0,0.0,0.0,0.0,0.0,0.0,0.0,0.0,0.0,0.0,-0.0005201969009380747,-0.12919921875,9.977878381791863
1707035048.4011614,0.0,0.0,0.0,0.0,0.0005326322180158476,0.0021305288720633903,0.0010652644360316951,-2.605517578125,-0.1184326171875,9.644482421875,0.0,0.0,0.0,0.0,0.0,0.0,0.0,0.0,0.0,0.0,0.0,0.0,0.0,0.0,0.0,0.0,0.0,0.0,0.0,0.0,0.0,0.0,0.0,0.0,0.0,0.0,0.0,-0.00958491908746506,-0.1184326171875,9.990228784422325
1707035048.4022295,0.0,0.0,0.0,0.0,0.0007989483270237714,0.001331580545039619,0.0007989483270237714,-2.605517578125,-0.1232177734375,9.644482421875,0.0,0.0,0.0,0.0,0.0,0.0,0.0,0.0,0.0,0.0,0.0,0.0,0.0,0.0,0.0,0.0,0.0,0.0,0.0,0.0,0.0,0.0,0.0,0.0,0.0,0.0,0.0,-0.00958491908746506,-0.1232177734375,9.990228784422325
1707035048.4033015,0.0,0.0,0.0,0.0,-0.0002663161090079238,0.0005326322180158476,0.0005326322180158476,-2.5851806640625004,-0.1184326171875,9.6313232421875,0.0,0.0,0.0,0.0,0.0,0.0,0.0,0.0,0.0,0.0,0.0,0.0,0.0,0.0,0.0,0.0,0.0,0.0,0.0,0.0,0.0,0.0,0.0,0.0,0.0,0.0,0.0,0.006633427208363685,-0.1184326171875,9.972236582582026
1707035048.4216833,0.0,0.0,0.0,0.0,0.0002663161090079238,0.0007989483270237714,-0.0002663161090079238,-2.5875732421875,-0.141162109375,9.639697265625,0.0,0.0,0.0,0.0,0.0,0.0,0.0,0.0,0.0,0.0,0.0,0.0,0.0,0.0,0.0,0.0,0.0,0.0,0.0,0.0,0.0,0.0,0.0,0.0,0.0,0.0,0.0,0.006499298280733701,-0.141162109375,9.980944665496581
1707035048.4227614,0.0,0.0,0.0,0.0,0.0,0.0015978966540475428,0.0007989483270237714,-2.5803955078125,-0.112451171875,9.640893554687501,0.0,0.0,0.0,0.0,0.0,0.0,0.0,0.0,0.0,0.0,0.0,0.0,0.0,0.0,0.0,0.0,0.0,0.0,0.0,0.0,0.0,0.0,0.0,0.0,0.0,0.0,0.0,0.013741303806746874,-0.112451171875,9.980234500557772
1707035048.4237967,0.0,0.0,0.0,0.0,0.0007989483270237714,0.0018642127630554663,0.0007989483270237714,-2.5995361328125,-0.107666015625,9.646875,0.0,0.0,0.0,0.0,0.0,0.0,0.0,0.0,0.0,0.0,0.0,0.0,0.0,0.0,0.0,0.0,0.0,0.0,0.0,0.0,0.0,0.0,0.0,0.0,0.0,0.0,0.0,-0.0031872074278953555,-0.107666015625,9.990984696872054
1707035048.462063,0.0,0.0,0.0,0.0,0.0,0.0015978966540475428,0.0005326322180158476,-2.5875732421875,-0.11005859375,9.658837890625,0.0,0.0,0.0,0.0,0.0,0.0,0.0,0.0,0.0,0.0,0.0,0.0,0.0,0.0,0.0,0.0,0.0,0.0,0.0,0.0,0.0,0.0,0.0,0.0,0.0,0.0,0.0,0.01147356645755071,-0.11005859375,9.99942763553648
1707035048.4631429,0.0,0.0,0.0,0.0,0.0005326322180158476,0.001331580545039619,0.0002663161090079238,-2.6126953125,-0.117236328125,9.669604492187501,0.0,0.0,0.0,0.0,0.0,0.0,0.0,0.0,0.0,0.0,0.0,0.0,0.0,0.0,0.0,0.0,0.0,0.0,0.0,0.0,0.0,0.0,0.0,0.0,0.0,0.0,0.0,-0.009987305870354568,-0.117236328125,10.016353033165995
1707035048.4642093,0.0,0.0,0.0,0.0,0.0,0.0015978966540475428,0.0,-2.5827880859375,-0.11005859375,9.6361083984375,0.0,0.0,0.0,0.0,0.0,0.0,0.0,0.0,0.0,0.0,0.0,0.0,0.0,0.0,0.0,0.0,0.0,0.0,0.0,0.0,0.0,0.0,0.0,0.0,0.0,0.0,0.0,0.010187365507555501,-0.11005859375,9.976235541569897
1707035048.4807289,0.0,0.0,0.0,0.0,0.0002663161090079238,0.001331580545039619,0.0,-2.5791992187500004,-0.11005859375,9.627734375,0.0,0.0,0.0,0.0,0.0,0.0,0.0,0.0,0.0,0.0,0.0,0.0,0.0,0.0,0.0,0.0,0.0,0.0,0.0,0.0,0.0,0.0,0.0,0.0,0.0,0.0,0.0,0.011476680062678213,-0.11005859375,9.967216566894288
1707035048.481758,0.0,0.0,0.0,0.0,0.0002663161090079238,0.0021305288720633903,0.0015978966540475428,-2.5995361328125,-0.11005859375,9.6313232421875,0.0,0.0,0.0,0.0,0.0,0.0,0.0,0.0,0.0,0.0,0.0,0.0,0.0,0.0,0.0,0.0,0.0,0.0,0.0,0.0,0.0,0.0,0.0,0.0,0.0,0.0,0.0,-0.007228800321558815,-0.11005859375,9.975967283714638
1707035048.4828367,0.0,0.0,0.0,0.0,0.0007989483270237714,0.002663161090079238,0.0015978966540475428,-2.605517578125,-0.12680664062500002,9.6480712890625,0.0,0.0,0.0,0.0,0.0,0.0,0.0,0.0,0.0,0.0,0.0,0.0,0.0,0.0,0.0,0.0,0.0,0.0,0.0,0.0,0.0,0.0,0.0,0.0,0.0,0.0,0.0,-0.008652243804311954,-0.12680664062500002,9.993694341304804
1707035048.5210953,0.0,0.0,0.0,0.0,0.0010652644360316951,0.0023968449810713144,0.001331580545039619,-2.5923583984375,-0.12680664062500002,9.6480712890625,0.0,0.0,0.0,0.0,0.0,0.0,0.0,0.0,0.0,0.0,0.0,0.0,0.0,0.0,0.0,0.0,0.0,0.0,0.0,0.0,0.0,0.0,0.0,0.0,0.0,0.0,0.0,0.004054798098117374,-0.12680664062500002,9.990274531933242
1707035048.5221655,0.0,0.0,0.0,0.0,0.0002663161090079238,0.001331580545039619,0.0005326322180158476,-2.5744140625,-0.1375732421875,9.643286132812499,0.0,0.0,0.0,0.0,0.0,0.0,0.0,0.0,0.0,0.0,0.0,0.0,0.0,0.0,0.0,0.0,0.0,0.0,0.0,0.0,0.0,0.0,0.0,0.0,0.0,0.0,0.0,0.02013901546631658,-0.1375732421875,9.9809904130075
1707035048.523221,0.0,0.0,0.0,0.0,0.0,0.0021305288720633903,0.0002663161090079238,-2.600732421875,-0.12680664062500002,9.6361083984375,0.0,0.0,0.0,0.0,0.0,0.0,0.0,0.0,0.0,0.0,0.0,0.0,0.0,0.0,0.0,0.0,0.0,0.0,0.0,0.0,0.0,0.0,0.0,0.0,0.0,0.0,0.0,-0.007140418904848289,-0.12680664062500002,9.980898917985664
1707035048.540614,0.0,0.0,0.0,0.0,0.0007989483270237714,0.0018642127630554663,0.0002663161090079238,-2.5947509765625,-0.1064697265625,9.6265380859375,0.0,0.0,0.0,0.0,0.0,0.0,0.0,0.0,0.0,0.0,0.0,0.0,0.0,0.0,0.0,0.0,0.0,0.0,0.0,0.0,0.0,0.0,0.0,0.0,0.0,0.0,0.0,-0.0038516248557884936,-0.1064697265625,9.970102974160461
1707035048.5416803,0.0,0.0,0.0,0.0,0.0010652644360316951,0.0023968449810713144,0.0007989483270237714,-2.605517578125,-0.11484375,9.649267578125,0.0,0.0,0.0,0.0,0.0,0.0,0.0,0.0,0.0,0.0,0.0,0.0,0.0,0.0,0.0,0.0,0.0,0.0,0.0,0.0,0.0,0.0,0.0,0.0,0.0,0.0,0.0,-0.008341352043260919,-0.11484375,9.994849526932297
1707035048.5427463,0.0,0.0,0.0,0.0,0.0010652644360316951,0.001331580545039619,0.0007989483270237714,-2.624658203125,-0.1232177734375,9.664819335937501,0.0,0.0,0.0,0.0,0.0,0.0,0.0,0.0,0.0,0.0,0.0,0.0,0.0,0.0,0.0,0.0,0.0,0.0,0.0,0.0,0.0,0.0,0.0,0.0,0.0,0.0,0.0,-0.022782729189493978,-0.1232177734375,10.014841208266532
1707035048.5804148,0.0,0.0,0.0,0.0,0.0007989483270237714,0.001331580545039619,0.0007989483270237714,-2.6186767578125,-0.1184326171875,9.6337158203125,0.0,0.0,0.0,0.0,0.0,0.0,0.0,0.0,0.0,0.0,0.0,0.0,0.0,0.0,0.0,0.0,0.0,0.0,0.0,0.0,0.0,0.0,0.0,0.0,0.0,0.0,0.0,-0.02508998683935415,-0.1184326171875,9.983251923146442
1707035048.581502,0.0,0.0,0.0,0.0,0.001331580545039619,0.0015978966540475428,0.0005326322180158476,-2.6067138671875,-0.1184326171875,9.6337158203125,0.0,0.0,0.0,0.0,0.0,0.0,0.0,0.0,0.0,0.0,0.0,0.0,0.0,0.0,0.0,0.0,0.0,0.0,0.0,0.0,0.0,0.0,0.0,0.0,0.0,0.0,0.0,-0.013538130564418438,-0.1184326171875,9.98014300553593
1707035048.5825715,0.0,0.0,0.0,0.0,0.0002663161090079238,0.0021305288720633903,0.0010652644360316951,-2.5935546875,-0.11005859375,9.6504638671875,0.0,0.0,0.0,0.0,0.0,0.0,0.0,0.0,0.0,0.0,0.0,0.0,0.0,0.0,0.0,0.0,0.0,0.0,0.0,0.0,0.0,0.0,0.0,0.0,0.0,0.0,0.0,0.0035213959927258287,-0.11005859375,9.99289579494928
1707035048.6005688,0.0,0.0,0.0,0.0,0.0010652644360316951,0.0021305288720633903,0.0007989483270237714,-2.600732421875,-0.112451171875,9.639697265625,0.0,0.0,0.0,0.0,0.0,0.0,0.0,0.0,0.0,0.0,0.0,0.0,0.0,0.0,0.0,0.0,0.0,0.0,0.0,0.0,0.0,0.0,0.0,0.0,0.0,0.0,0.0,-0.006207743621695627,-0.112451171875,9.984364474868144
1707035048.6016307,0.0,0.0,0.0,0.0,0.001331580545039619,0.0002663161090079238,0.0007989483270237714,-2.5803955078125,-0.1064697265625,9.621752929687501,0.0,0.0,0.0,0.0,0.0,0.0,0.0,0.0,0.0,0.0,0.0,0.0,0.0,0.0,0.0,0.0,0.0,0.0,0.0,0.0,0.0,0.0,0.0,0.0,0.0,0.0,0.0,0.008767035629930309,-0.1064697265625,9.961751530517875
1707035048.6026917,0.0,0.0,0.0,0.0,0.0,0.0005326322180158476,0.0,-2.5791992187500004,-0.1232177734375,9.639697265625,0.0,0.0,0.0,0.0,0.0,0.0,0.0,0.0,0.0,0.0,0.0,0.0,0.0,0.0,0.0,0.0,0.0,0.0,0.0,0.0,0.0,0.0,0.0,0.0,0.0,0.0,0.0,0.014585597673188566,-0.1232177734375,9.978768423169225
1707035048.6415758,0.0,0.0,0.0,0.0,0.0007989483270237714,0.0015978966540475428,0.0002663161090079238,-2.5803955078125,-0.1208251953125,9.639697265625,0.0,0.0,0.0,0.0,0.0,0.0,0.0,0.0,0.0,0.0,0.0,0.0,0.0,0.0,0.0,0.0,0.0,0.0,0.0,0.0,0.0,0.0,0.0,0.0,0.0,0.0,0.0,0.013430412045695395,-0.1208251953125,9.979079314930276
1707035048.6426451,0.0,0.0,0.0,0.0,0.0010652644360316951,0.002663161090079238,0.0010652644360316951,-2.610302734375,-0.1136474609375,9.6719970703125,0.0,0.0,0.0,0.0,0.0,0.0,0.0,0.0,0.0,0.0,0.0,0.0,0.0,0.0,0.0,0.0,0.0,0.0,0.0,0.0,0.0,0.0,0.0,0.0,0.0,0.0,0.0,-0.007055151093265266,-0.1136474609375,10.01804162089888
1707035048.6437128,0.0,0.0,0.0,0.0,0.0,0.0010652644360316951,0.0002663161090079238,-2.5935546875,-0.1184326171875,9.6480712890625,0.0,0.0,0.0,0.0,0.0,0.0,0.0,0.0,0.0,0.0,0.0,0.0,0.0,0.0,0.0,0.0,0.0,0.0,0.0,0.0,0.0,0.0,0.0,0.0,0.0,0.0,0.0,0.002899612470623758,-0.1184326171875,9.990585423694293
1707035048.660728,0.0,0.0,0.0,0.0,0.0,0.001331580545039619,0.0002663161090079238,-2.6019287109375,-0.1088623046875,9.6265380859375,0.0,0.0,0.0,0.0,0.0,0.0,0.0,0.0,0.0,0.0,0.0,0.0,0.0,0.0,0.0,0.0,0.0,0.0,0.0,0.0,0.0,0.0,0.0,0.0,0.0,0.0,0.0,-0.010782738620749743,-0.1088623046875,9.971968324726767
1707035048.6617928,0.0,0.0,0.0,0.0,0.0005326322180158476,0.0002663161090079238,0.0,-2.5911621093750004,-0.1160400390625,9.644482421875,0.0,0.0,0.0,0.0,0.0,0.0,0.0,0.0,0.0,0.0,0.0,0.0,0.0,0.0,0.0,0.0,0.0,0.0,0.0,0.0,0.0,0.0,0.0,0.0,0.0,0.0,0.0,0.004277308442457439,-0.1160400390625,9.986498083289712
1707035048.6628609,0.0,0.0,0.0,0.0,0.0010652644360316951,0.0023968449810713144,0.0005326322180158476,-2.5899658203125,-0.117236328125,9.639697265625,0.0,0.0,0.0,0.0,0.0,0.0,0.0,0.0,0.0,0.0,0.0,0.0,0.0,0.0,0.0,0.0,0.0,0.0,0.0,0.0,0.0,0.0,0.0,0.0,0.0,0.0,0.0,0.0041889270257469136,-0.117236328125,9.981566449018684
1707035048.7008033,0.0,0.0,0.0,0.0,0.0002663161090079238,0.0018642127630554663,0.0,-2.5899658203125,-0.122021484375,9.646875,0.0,0.0,0.0,0.0,0.0,0.0,0.0,0.0,0.0,0.0,0.0,0.0,0.0,0.0,0.0,0.0,0.0,0.0,0.0,0.0,0.0,0.0,0.0,0.0,0.0,0.0,0.0,0.00605427759205357,-0.122021484375,9.988497562783646
1707035048.7019572,0.0,0.0,0.0,0.0,-0.0002663161090079238,0.0010652644360316951,0.0,-2.54091796875,-0.1184326171875,9.621752929687501,0.0,0.0,0.0,0.0,0.0,0.0,0.0,0.0,0.0,0.0,0.0,0.0,0.0,0.0,0.0,0.0,0.0,0.0,0.0,0.0,0.0,0.0,0.0,0.0,0.0,0.0,0.0,0.04688816133721785,-0.1184326171875,9.95149210240319
1707035048.7030227,0.0,0.0,0.0,0.0,0.0002663161090079238,0.002929477199087161,-0.0005326322180158476,-2.5612548828125004,-0.1040771484375,9.6373046875,0.0,0.0,0.0,0.0,0.0,0.0,0.0,0.0,0.0,0.0,0.0,0.0,0.0,0.0,0.0,0.0,0.0,0.0,0.0,0.0,0.0,0.0,0.0,0.0,0.0,0.0,0.0,0.031291598563490286,-0.1040771484375,9.971794675498474
1707035048.7210956,0.0,0.0,0.0,0.0,0.0002663161090079238,0.0042610577441267805,0.0015978966540475428,-2.5995361328125,-0.1184326171875,9.6265380859375,0.0,0.0,0.0,0.0,0.0,0.0,0.0,0.0,0.0,0.0,0.0,0.0,0.0,0.0,0.0,0.0,0.0,0.0,0.0,0.0,0.0,0.0,0.0,0.0,0.0,0.0,0.0,-0.008472367365762956,-0.1184326171875,9.971346541204666
1707035048.7221591,0.0,0.0,0.0,0.0,-0.0005326322180158476,0.0037284255261109327,0.0021305288720633903,-2.6641357421875,-0.1495361328125,9.639697265625,0.0,0.0,0.0,0.0,0.0,0.0,0.0,0.0,0.0,0.0,0.0,0.0,0.0,0.0,0.0,0.0,0.0,0.0,0.0,0.0,0.0,0.0,0.0,0.0,0.0,0.0,0.0,-0.06743258187885415,-0.1495361328125,10.00084173820385
1707035048.7613263,0.0,0.0,0.0,0.0,-0.0002663161090079238,0.0010652644360316951,0.0023968449810713144,-2.6509765625000004,-0.14833984375,9.6480712890625,0.0,0.0,0.0,0.0,0.0,0.0,0.0,0.0,0.0,0.0,0.0,0.0,0.0,0.0,0.0,0.0,0.0,0.0,0.0,0.0,0.0,0.0,0.0,0.0,0.0,0.0,0.0,-0.052549297649068016,-0.14833984375,10.005508228224743
1707035048.7623968,0.0,0.0,0.0,0.0,0.001331580545039619,-0.0021305288720633903,0.0,-2.58876953125,-0.1160400390625,9.6552490234375,0.0,0.0,0.0,0.0,0.0,0.0,0.0,0.0,0.0,0.0,0.0,0.0,0.0,0.0,0.0,0.0,0.0,0.0,0.0,0.0,0.0,0.0,0.0,0.0,0.0,0.0,0.0,0.009385705546903989,-0.1160400390625,9.99627297041505
1707035048.7634695,0.0,0.0,0.0,0.0,0.0002663161090079238,-0.002663161090079238,-0.0021305288720633903,-2.5612548828125004,-0.098095703125,9.640893554687501,0.0,0.0,0.0,0.0,0.0,0.0,0.0,0.0,0.0,0.0,0.0,0.0,0.0,0.0,0.0,0.0,0.0,0.0,0.0,0.0,0.0,0.0,0.0,0.0,0.0,0.0,0.0,0.03222427384664339,-0.098095703125,9.975260232380956
1707035048.7826955,0.0,0.0,0.0,0.0,0.0007989483270237714,-0.0007989483270237714,-0.0007989483270237714,-2.5361328125,-0.11962890625,9.625341796875,0.0,0.0,0.0,0.0,0.0,0.0,0.0,0.0,0.0,0.0,0.0,0.0,0.0,0.0,0.0,0.0,0.0,0.0,0.0,0.0,0.0,0.0,0.0,0.0,0.0,0.0,0.0,0.05244157913034542,-0.11962890625,9.953714092241466
1707035048.7837727,0.0,0.0,0.0,0.0,0.0002663161090079238,0.002663161090079238,0.0007989483270237714,-2.557666015625,-0.15073242187500002,9.621752929687501,0.0,0.0,0.0,0.0,0.0,0.0,0.0,0.0,0.0,0.0,0.0,0.0,0.0,0.0,0.0,0.0,0.0,0.0,0.0,0.0,0.0,0.0,0.0,0.0,0.0,0.0,0.0,0.030715562552307674,-0.15073242187500002,9.955844587057904
1707035048.7848115,0.0,0.0,0.0,0.0,0.0007989483270237714,0.005060006071150552,0.0018642127630554663,-2.6126953125,-0.1112548828125,9.67080078125,0.0,0.0,0.0,0.0,0.0,0.0,0.0,0.0,0.0,0.0,0.0,0.0,0.0,0.0,0.0,0.0,0.0,0.0,0.0,0.0,0.0,0.0,0.0,0.0,0.0,0.0,0.0,-0.009676414109303977,-0.1112548828125,10.017508218793488
1707035048.8205516,0.0,0.0,0.0,0.0,0.001331580545039619,0.0042610577441267805,0.0021305288720633903,-2.6449951171875004,-0.107666015625,9.6815673828125,0.0,0.0,0.0,0.0,0.0,0.0,0.0,0.0,0.0,0.0,0.0,0.0,0.0,0.0,0.0,0.0,0.0,0.0,0.0,0.0,0.0,0.0,0.0,0.0,0.0,0.0,0.0,-0.03806840020217095,-0.107666015625,10.036298966989309
1707035048.8216147,0.0,0.0,0.0,0.0,0.0010652644360316951,0.0010652644360316951,0.0002663161090079238,-2.6186767578125,-0.13876953125000002,9.667211914062499,0.0,0.0,0.0,0.0,0.0,0.0,0.0,0.0,0.0,0.0,0.0,0.0,0.0,0.0,0.0,0.0,0.0,0.0,0.0,0.0,0.0,0.0,0.0,0.0,0.0,0.0,0.0,-0.01638501752992516,-0.13876953125000002,10.015597120716262
1707035048.822676,0.0,0.0,0.0,0.0,0.0010652644360316951,-0.0007989483270237714,-0.0007989483270237714,-2.6114990234375,-0.1303955078125,9.644482421875,0.0,0.0,0.0,0.0,0.0,0.0,0.0,0.0,0.0,0.0,0.0,0.0,0.0,0.0,0.0,0.0,0.0,0.0,0.0,0.0,0.0,0.0,0.0,0.0,0.0,0.0,0.0,-0.015360847224933138,-0.1303955078125,9.991783243227578
1707035048.8237078,0.0,0.0,0.0,0.0,0.001331580545039619,0.0002663161090079238,0.0,-2.6091064453125004,-0.11005859375,9.638500976562499,0.0,0.0,0.0,0.0,0.0,0.0,0.0,0.0,0.0,0.0,0.0,0.0,0.0,0.0,0.0,0.0,0.0,0.0,0.0,0.0,0.0,0.0,0.0,0.0,0.0,0.0,0.0,-0.014604934775201528,-0.11005859375,9.985385531568006
1707035048.860608,0.0,0.0,0.0,0.0,0.0007989483270237714,-0.0002663161090079238,0.0002663161090079238,-2.56962890625,-0.0801513671875,9.640893554687501,0.0,0.0,0.0,0.0,0.0,0.0,0.0,0.0,0.0,0.0,0.0,0.0,0.0,0.0,0.0,0.0,0.0,0.0,0.0,0.0,0.0,0.0,0.0,0.0,0.0,0.0,0.0,0.024137974454188527,-0.0801513671875,9.977436474708313
1707035048.8618844,0.0,0.0,0.0,0.0,0.0007989483270237714,0.0005326322180158476,0.0005326322180158476,-2.5468994140625,-0.1184326171875,9.615771484375,0.0,0.0,0.0,0.0,0.0,0.0,0.0,0.0,0.0,0.0,0.0,0.0,0.0,0.0,0.0,0.0,0.0,0.0,0.0,0.0,0.0,0.0,0.0,0.0,0.0,0.0,0.0,0.039557774394494594,-0.1184326171875,9.947270633070977
1707035048.8629265,0.0,0.0,0.0,0.0,0.0005326322180158476,0.0037284255261109327,0.0002663161090079238,-2.610302734375,-0.133984375,9.666015625,0.0,0.0,0.0,0.0,0.0,0.0,0.0,0.0,0.0,0.0,0.0,0.0,0.0,0.0,0.0,0.0,0.0,0.0,0.0,0.0,0.0,0.0,0.0,0.0,0.0,0.0,0.0,-0.008609609898520443,-0.133984375,10.012265692761412
1707035048.8810863,0.0,0.0,0.0,0.0,-0.0005326322180158476,0.0015978966540475428,0.0,-2.6210693359375004,-0.11484375,9.646875,0.0,0.0,0.0,0.0,0.0,0.0,0.0,0.0,0.0,0.0,0.0,0.0,0.0,0.0,0.0,0.0,0.0,0.0,0.0,0.0,0.0,0.0,0.0,0.0,0.0,0.0,0.0,-0.02398054872277955,-0.11484375,9.996580748570972
1707035048.882472,0.0,0.0,0.0,0.0,0.0002663161090079238,0.0005326322180158476,0.0010652644360316951,-2.5971435546875004,-0.1160400390625,9.6337158203125,0.0,0.0,0.0,0.0,0.0,0.0,0.0,0.0,0.0,0.0,0.0,0.0,0.0,0.0,0.0,0.0,0.0,0.0,0.0,0.0,0.0,0.0,0.0,0.0,0.0,0.0,0.0,-0.004296645544470401,-0.1160400390625,9.977655871447523
1707035048.8835375,0.0,0.0,0.0,0.0,0.0007989483270237714,0.0023968449810713144,0.0007989483270237714,-2.6210693359375004,-0.1303955078125,9.639697265625,0.0,0.0,0.0,0.0,0.0,0.0,0.0,0.0,0.0,0.0,0.0,0.0,0.0,0.0,0.0,0.0,0.0,0.0,0.0,0.0,0.0,0.0,0.0,0.0,0.0,0.0,0.0,-0.025845899289086205,-0.1303955078125,9.98964963480601
1707035048.920637,0.0,0.0,0.0,0.0,0.0005326322180158476,0.0018642127630554663,0.0010652644360316951,-2.6126953125,-0.145947265625,9.640893554687501,0.0,0.0,0.0,0.0,0.0,0.0,0.0,0.0,0.0,0.0,0.0,0.0,0.0,0.0,0.0,0.0,0.0,0.0,0.0,0.0,0.0,0.0,0.0,0.0,0.0,0.0,0.0,-0.01744870813557986,-0.145947265625,9.98862857810615
1707035048.9217024,0.0,0.0,0.0,0.0,0.0010652644360316951,0.0021305288720633903,0.0,-2.65576171875,-0.13278808593750002,9.66123046875,0.0,0.0,0.0,0.0,0.0,0.0,0.0,0.0,0.0,0.0,0.0,0.0,0.0,0.0,0.0,0.0,0.0,0.0,0.0,0.0,0.0,0.0,0.0,0.0,0.0,0.0,0.0,-0.0537502307874802,-0.13278808593750002,10.019458837171376
1707035048.9227731,0.0,0.0,0.0,0.0,0.0,0.0,0.0002663161090079238,-2.6019287109375,-0.1280029296875,9.649267578125,0.0,0.0,0.0,0.0,0.0,0.0,0.0,0.0,0.0,0.0,0.0,0.0,0.0,0.0,0.0,0.0,0.0,0.0,0.0,0.0,0.0,0.0,0.0,0.0,0.0,0.0,0.0,-0.004875795160780072,-0.1280029296875,9.993916851649143
1707035048.9406283,0.0,0.0,0.0,0.0,0.0005326322180158476,-0.0005326322180158476,-0.0002663161090079238,-2.5516845703125,-0.102880859375,9.64208984375,0.0,0.0,0.0,0.0,0.0,0.0,0.0,0.0,0.0,0.0,0.0,0.0,0.0,0.0,0.0,0.0,0.0,0.0,0.0,0.0,0.0,0.0,0.0,0.0,0.0,0.0,0.0,0.04177665062764335,-0.102880859375,9.973928283920038
1707035048.941704,0.0,0.0,0.0,0.0,0.0002663161090079238,0.0010652644360316951,-0.0002663161090079238,-2.56484375,-0.1064697265625,9.640893554687501,0.0,0.0,0.0,0.0,0.0,0.0,0.0,0.0,0.0,0.0,0.0,0.0,0.0,0.0,0.0,0.0,0.0,0.0,0.0,0.0,0.0,0.0,0.0,0.0,0.0,0.0,0.0,0.02875871696416299,-0.1064697265625,9.976192907664108
1707035048.9427655,0.0,0.0,0.0,0.0,-0.0005326322180158476,0.0018642127630554663,0.0010652644360316951,-2.562451171875,-0.11005859375,9.639697265625,0.0,0.0,0.0,0.0,0.0,0.0,0.0,0.0,0.0,0.0,0.0,0.0,0.0,0.0,0.0,0.0,0.0,0.0,0.0,0.0,0.0,0.0,0.0,0.0,0.0,0.0,0.0,0.030758196458099185,-0.11005859375,9.97441593851451
1707035048.9808023,0.0,0.0,0.0,0.0,-0.0002663161090079238,0.00346210941710301,0.0002663161090079238,-2.6126953125,-0.112451171875,9.666015625,0.0,0.0,0.0,0.0,0.0,0.0,0.0,0.0,0.0,0.0,0.0,0.0,0.0,0.0,0.0,0.0,0.0,0.0,0.0,0.0,0.0,0.0,0.0,0.0,0.0,0.0,0.0,-0.010919981153508118,-0.112451171875,10.012887476283513
1707035048.9818687,0.0,0.0,0.0,0.0,-0.0002663161090079238,0.0021305288720633903,-0.0002663161090079238,-2.6186767578125,-0.1160400390625,9.6528564453125,0.0,0.0,0.0,0.0,0.0,0.0,0.0,0.0,0.0,0.0,0.0,0.0,0.0,0.0,0.0,0.0,0.0,0.0,0.0,0.0,0.0,0.0,0.0,0.0,0.0,0.0,0.0,-0.02011571866253714,-0.1160400390625,10.001734893186338
1707035048.9829335,0.0,0.0,0.0,0.0,-0.0002663161090079238,0.0015978966540475428,0.0002663161090079238,-2.60791015625,-0.09091796875,9.643286132812499,0.0,0.0,0.0,0.0,0.0,0.0,0.0,0.0,0.0,0.0,0.0,0.0,0.0,0.0,0.0,0.0,0.0,0.0,0.0,0.0,0.0,0.0,0.0,0.0,0.0,0.0,0.0,-0.012206182103503771,-0.09091796875,9.98969538231693
1707035049.0005476,0.0,0.0,0.0,0.0,0.0010652644360316951,0.0007989483270237714,0.0005326322180158476,-2.6019287109375,-0.107666015625,9.644482421875,0.0,0.0,0.0,0.0,0.0,0.0,0.0,0.0,0.0,0.0,0.0,0.0,0.0,0.0,0.0,0.0,0.0,0.0,0.0,0.0,0.0,0.0,0.0,0.0,0.0,0.0,0.0,-0.006119362204984213,-0.107666015625,9.98929610913917
1707035049.001621,0.0,0.0,0.0,0.0,0.0007989483270237714,0.0005326322180158476,0.0007989483270237714,-2.5923583984375,-0.1280029296875,9.649267578125,0.0,0.0,0.0,0.0,0.0,0.0,0.0,0.0,0.0,0.0,0.0,0.0,0.0,0.0,0.0,0.0,0.0,0.0,0.0,0.0,0.0,0.0,0.0,0.0,0.0,0.0,0.0,0.004365689859168409,-0.1280029296875,9.991429717560735
1707035049.0026972,0.0,0.0,0.0,0.0,-0.0002663161090079238,0.0010652644360316951,0.0007989483270237714,-2.56484375,-0.1232177734375,9.63251953125,0.0,0.0,0.0,0.0,0.0,0.0,0.0,0.0,0.0,0.0,0.0,0.0,0.0,0.0,0.0,0.0,0.0,0.0,0.0,0.0,0.0,0.0,0.0,0.0,0.0,0.0,0.0,0.026582474636805742,-0.1232177734375,9.968106608271652
1707035049.0424888,0.0,0.0,0.0,0.0,0.0,0.0018642127630554663,0.0005326322180158476,-2.5827880859375,-0.133984375,9.63251953125,0.0,0.0,0.0,0.0,0.0,0.0,0.0,0.0,0.0,0.0,0.0,0.0,0.0,0.0,0.0,0.0,0.0,0.0,0.0,0.0,0.0,0.0,0.0,0.0,0.0,0.0,0.0,0.009254690224402395,-0.133984375,9.972769984687417
1707035049.0435345,0.0,0.0,0.0,0.0,0.0007989483270237714,0.002663161090079238,0.0018642127630554663,-2.624658203125,-0.1244140625,9.6552490234375,0.0,0.0,0.0,0.0,0.0,0.0,0.0,0.0,0.0,0.0,0.0,0.0,0.0,0.0,0.0,0.0,0.0,0.0,0.0,0.0,0.0,0.0,0.0,0.0,0.0,0.0,0.0,-0.025269863277902704,-0.1244140625,10.005599723246583
1707035049.0446196,0.0,0.0,0.0,0.0,0.0,0.0007989483270237714,0.0,-2.5899658203125,-0.1088623046875,9.649267578125,0.0,0.0,0.0,0.0,0.0,0.0,0.0,0.0,0.0,0.0,0.0,0.0,0.0,0.0,0.0,0.0,0.0,0.0,0.0,0.0,0.0,0.0,0.0,0.0,0.0,0.0,0.0,0.00667606111415564,-0.1088623046875,9.990807934038633
1707035049.0604904,0.0,0.0,0.0,0.0,0.0,0.0007989483270237714,0.0007989483270237714,-2.5911621093750004,-0.131591796875,9.6373046875,0.0,0.0,0.0,0.0,0.0,0.0,0.0,0.0,0.0,0.0,0.0,0.0,0.0,0.0,0.0,0.0,0.0,0.0,0.0,0.0,0.0,0.0,0.0,0.0,0.0,0.0,0.0,0.0024119578761512273,-0.131591796875,9.97956696952475
1707035049.0615509,0.0,0.0,0.0,0.0,0.0,0.0021305288720633903,0.0002663161090079238,-2.595947265625,-0.1136474609375,9.6480712890625,0.0,0.0,0.0,0.0,0.0,0.0,0.0,0.0,0.0,0.0,0.0,0.0,0.0,0.0,0.0,0.0,0.0,0.0,0.0,0.0,0.0,0.0,0.0,0.0,0.0,0.0,0.0,0.0005892412156365268,-0.1136474609375,9.991207207216394
1707035049.0626116,0.0,0.0,0.0,0.0,0.0002663161090079238,0.0023968449810713144,0.0,-2.6162841796875,-0.1244140625,9.6552490234375,0.0,0.0,0.0,0.0,0.0,0.0,0.0,0.0,0.0,0.0,0.0,0.0,0.0,0.0,0.0,0.0,0.0,0.0,0.0,0.0,0.0,0.0,0.0,0.0,0.0,0.0,0.0,-0.01718356388544784,-0.1244140625,10.003423480919224
1707035049.100855,0.0,0.0,0.0,0.0,0.0005326322180158476,0.0021305288720633903,0.0002663161090079238,-2.6210693359375004,-0.122021484375,9.664819335937501,0.0,0.0,0.0,0.0,0.0,0.0,0.0,0.0,0.0,0.0,0.0,0.0,0.0,0.0,0.0,0.0,0.0,0.0,0.0,0.0,0.0,0.0,0.0,0.0,0.0,0.0,0.0,-0.019317172307013575,-0.122021484375,10.013908532983377
1707035049.101895,0.0,0.0,0.0,0.0,0.0,0.0007989483270237714,-0.0002663161090079238,-2.6067138671875,-0.13278808593750002,9.640893554687501,0.0,0.0,0.0,0.0,0.0,0.0,0.0,0.0,0.0,0.0,0.0,0.0,0.0,0.0,0.0,0.0,0.0,0.0,0.0,0.0,0.0,0.0,0.0,0.0,0.0,0.0,0.0,-0.011672779998111782,-0.13278808593750002,9.987074119300894
1707035049.1205847,0.0,0.0,0.0,0.0,0.0007989483270237714,0.001331580545039619,-0.0005326322180158476,-2.58876953125,-0.1256103515625,9.619360351562499,0.0,0.0,0.0,0.0,0.0,0.0,0.0,0.0,0.0,0.0,0.0,0.0,0.0,0.0,0.0,0.0,0.0,0.0,0.0,0.0,0.0,0.0,0.0,0.0,0.0,0.0,0.0,5.895271537204039e-05,-0.1256103515625,9.961617401590242
1707035049.1217055,0.0,0.0,0.0,0.0,0.001331580545039619,0.0015978966540475428,-0.0005326322180158476,-2.5875732421875,-0.1052734375,9.6576416015625,0.0,0.0,0.0,0.0,0.0,0.0,0.0,0.0,0.0,0.0,0.0,0.0,0.0,0.0,0.0,0.0,0.0,0.0,0.0,0.0,0.0,0.0,0.0,0.0,0.0,0.0,0.0,0.011162674696499675,-0.1052734375,9.998272449908985
1707035049.122772,0.0,0.0,0.0,0.0,0.0010652644360316951,0.0002663161090079238,0.0007989483270237714,-2.6031250000000004,-0.112451171875,9.6480712890625,0.0,0.0,0.0,0.0,0.0,0.0,0.0,0.0,0.0,0.0,0.0,0.0,0.0,0.0,0.0,0.0,0.0,0.0,0.0,0.0,0.0,0.0,0.0,0.0,0.0,0.0,0.0,-0.006341872549325167,-0.112451171875,9.993072557782702
1707035049.1608648,0.0,0.0,0.0,0.0,0.0007989483270237714,0.0007989483270237714,0.0002663161090079238,-2.5875732421875,-0.1184326171875,9.643286132812499,0.0,0.0,0.0,0.0,0.0,0.0,0.0,0.0,0.0,0.0,0.0,0.0,0.0,0.0,0.0,0.0,0.0,0.0,0.0,0.0,0.0,0.0,0.0,0.0,0.0,0.0,0.0,0.007431973563886807,-0.1184326171875,9.984410222379061
1707035049.1619723,0.0,0.0,0.0,0.0,0.0010652644360316951,0.0021305288720633903,0.0002663161090079238,-2.605517578125,-0.1064697265625,9.646875,0.0,0.0,0.0,0.0,0.0,0.0,0.0,0.0,0.0,0.0,0.0,0.0,0.0,0.0,0.0,0.0,0.0,0.0,0.0,0.0,0.0,0.0,0.0,0.0,0.0,0.0,0.0,-0.00896313556536299,-0.1064697265625,9.99253915567731
1707035049.1631048,0.0,0.0,0.0,0.0,0.001331580545039619,0.0018642127630554663,-0.0002663161090079238,-2.600732421875,-0.1064697265625,9.649267578125,0.0,0.0,0.0,0.0,0.0,0.0,0.0,0.0,0.0,0.0,0.0,0.0,0.0,0.0,0.0,0.0,0.0,0.0,0.0,0.0,0.0,0.0,0.0,0.0,0.0,0.0,0.0,-0.0037206095332869005,-0.1064697265625,9.993605959888093
1707035049.1808572,0.0,0.0,0.0,0.0,0.0005326322180158476,0.0021305288720633903,0.0007989483270237714,-2.6378173828125,-0.133984375,9.677978515625,0.0,0.0,0.0,0.0,0.0,0.0,0.0,0.0,0.0,0.0,0.0,0.0,0.0,0.0,0.0,0.0,0.0,0.0,0.0,0.0,0.0,0.0,0.0,0.0,0.0,0.0,0.0,-0.03206996172036236,-0.133984375,10.030968059540522
1707035049.1818924,0.0,0.0,0.0,0.0,0.0005326322180158476,0.0002663161090079238,0.001331580545039619,-2.5791992187500004,-0.117236328125,9.634912109375,0.0,0.0,0.0,0.0,0.0,0.0,0.0,0.0,0.0,0.0,0.0,0.0,0.0,0.0,0.0,0.0,0.0,0.0,0.0,0.0,0.0,0.0,0.0,0.0,0.0,0.0,0.0,0.013342030628984425,-0.117236328125,9.97414768065925
1707035049.182924,0.0,0.0,0.0,0.0,0.0007989483270237714,0.0015978966540475428,0.0010652644360316951,-2.5732177734375004,-0.1160400390625,9.6373046875,0.0,0.0,0.0,0.0,0.0,0.0,0.0,0.0,0.0,0.0,0.0,0.0,0.0,0.0,0.0,0.0,0.0,0.0,0.0,0.0,0.0,0.0,0.0,0.0,0.0,0.0,0.0,0.019739742288554574,-0.1160400390625,9.974903593108984
1707035049.2208555,0.0,0.0,0.0,0.0,0.0010652644360316951,0.0021305288720633903,0.0005326322180158476,-2.600732421875,-0.11962890625,9.64208984375,0.0,0.0,0.0,0.0,0.0,0.0,0.0,0.0,0.0,0.0,0.0,0.0,0.0,0.0,0.0,0.0,0.0,0.0,0.0,0.0,0.0,0.0,0.0,0.0,0.0,0.0,0.0,-0.0055859600995931125,-0.11962890625,9.986674846123131
1707035049.2219224,0.0,0.0,0.0,0.0,0.001331580545039619,0.0015978966540475428,0.0005326322180158476,-2.5935546875,-0.1160400390625,9.6337158203125,0.0,0.0,0.0,0.0,0.0,0.0,0.0,0.0,0.0,0.0,0.0,0.0,0.0,0.0,0.0,0.0,0.0,0.0,0.0,0.0,0.0,0.0,0.0,0.0,0.0,0.0,0.0,-0.00083108866198911,-0.1160400390625,9.97672319616437
1707035049.2230008,0.0,0.0,0.0,0.0,0.0007989483270237714,0.0007989483270237714,0.0007989483270237714,-2.5923583984375,-0.11962890625,9.6564453125,0.0,0.0,0.0,0.0,0.0,0.0,0.0,0.0,0.0,0.0,0.0,0.0,0.0,0.0,0.0,0.0,0.0,0.0,0.0,0.0,0.0,0.0,0.0,0.0,0.0,0.0,0.0,0.006231040425474621,-0.11962890625,9.998360831325696
1707035049.2435684,0.0,0.0,0.0,0.0,0.0007989483270237714,0.001331580545039619,0.0007989483270237714,-2.5791992187500004,-0.1160400390625,9.6121826171875,0.0,0.0,0.0,0.0,0.0,0.0,0.0,0.0,0.0,0.0,0.0,0.0,0.0,0.0,0.0,0.0,0.0,0.0,0.0,0.0,0.0,0.0,0.0,0.0,0.0,0.0,0.0,0.0074350871690147535,-0.1160400390625,9.952199153736874
1707035049.2446415,0.0,0.0,0.0,0.0,0.0007989483270237714,0.0023968449810713144,0.0002663161090079238,-2.605517578125,-0.1040771484375,9.644482421875,0.0,0.0,0.0,0.0,0.0,0.0,0.0,0.0,0.0,0.0,0.0,0.0,0.0,0.0,0.0,0.0,0.0,0.0,0.0,0.0,0.0,0.0,0.0,0.0,0.0,0.0,0.0,-0.00958491908746506,-0.1040771484375,9.990228784422325
1707035049.2458243,0.0,0.0,0.0,0.0,-0.0002663161090079238,0.0023968449810713144,0.0,-2.6306396484375,-0.1160400390625,9.6600341796875,0.0,0.0,0.0,0.0,0.0,0.0,0.0,0.0,0.0,0.0,0.0,0.0,0.0,0.0,0.0,0.0,0.0,0.0,0.0,0.0,0.0,0.0,0.0,0.0,0.0,0.0,0.0,-0.02980222437116664,-0.1160400390625,10.011774924561811
1707035049.2808564,0.0,0.0,0.0,0.0,0.0005326322180158476,0.0018642127630554663,0.0005326322180158476,-2.6234619140625,-0.117236328125,9.662426757812499,0.0,0.0,0.0,0.0,0.0,0.0,0.0,0.0,0.0,0.0,0.0,0.0,0.0,0.0,0.0,0.0,0.0,0.0,0.0,0.0,0.0,0.0,0.0,0.0,0.0,0.0,0.0,-0.022249327084103765,-0.117236328125,10.012219945250491
1707035049.2819223,0.0,0.0,0.0,0.0,0.0007989483270237714,-0.0005326322180158476,-0.0002663161090079238,-2.610302734375,-0.11962890625,9.649267578125,0.0,0.0,0.0,0.0,0.0,0.0,0.0,0.0,0.0,0.0,0.0,0.0,0.0,0.0,0.0,0.0,0.0,0.0,0.0,0.0,0.0,0.0,0.0,0.0,0.0,0.0,0.0,-0.012962094553234937,-0.11962890625,9.996093093976501
1707035049.282943,0.0,0.0,0.0,0.0,0.0,0.0002663161090079238,-0.0002663161090079238,-2.595947265625,-0.112451171875,9.644482421875,0.0,0.0,0.0,0.0,0.0,0.0,0.0,0.0,0.0,0.0,0.0,0.0,0.0,0.0,0.0,0.0,0.0,0.0,0.0,0.0,0.0,0.0,0.0,0.0,0.0,0.0,0.0,-0.00034343406751657923,-0.112451171875,9.987741650333916
1707035049.301584,0.0,0.0,0.0,0.0,0.0007989483270237714,0.0015978966540475428,0.0002663161090079238,-2.5995361328125,-0.1016845703125,9.658837890625,0.0,0.0,0.0,0.0,0.0,0.0,0.0,0.0,0.0,0.0,0.0,0.0,0.0,0.0,0.0,0.0,0.0,0.0,0.0,0.0,0.0,0.0,0.0,0.0,0.0,0.0,0.0,-7.828981738500218e-05,-0.1016845703125,10.00253655314699
1707035049.3026528,0.0,0.0,0.0,0.0,0.0010652644360316951,0.0015978966540475428,0.0002663161090079238,-2.5995361328125,-0.13278808593750002,9.649267578125,0.0,0.0,0.0,0.0,0.0,0.0,0.0,0.0,0.0,0.0,0.0,0.0,0.0,0.0,0.0,0.0,0.0,0.0,0.0,0.0,0.0,0.0,0.0,0.0,0.0,0.0,0.0,-0.002565423905793285,-0.13278808593750002,9.993295068127042
1707035049.3036847,0.0,0.0,0.0,0.0,0.0007989483270237714,0.0021305288720633903,0.0007989483270237714,-2.6138916015625,-0.1244140625,9.6504638671875,0.0,0.0,0.0,0.0,0.0,0.0,0.0,0.0,0.0,0.0,0.0,0.0,0.0,0.0,0.0,0.0,0.0,0.0,0.0,0.0,0.0,0.0,0.0,0.0,0.0,0.0,0.0,-0.01611675967466475,-0.1244140625,9.998180954887149
1707035049.3409178,0.0,0.0,0.0,0.0,0.0007989483270237714,0.0005326322180158476,0.0002663161090079238,-2.605517578125,-0.1244140625,9.6361083984375,0.0,0.0,0.0,0.0,0.0,0.0,0.0,0.0,0.0,0.0,0.0,0.0,0.0,0.0,0.0,0.0,0.0,0.0,0.0,0.0,0.0,0.0,0.0,0.0,0.0,0.0,0.0,-0.011761161414822308,-0.1244140625,9.982142485029868
1707035049.3419936,0.0,0.0,0.0,0.0,0.0007989483270237714,0.0007989483270237714,0.0005326322180158476,-2.58876953125,-0.1064697265625,9.646875,0.0,0.0,0.0,0.0,0.0,0.0,0.0,0.0,0.0,0.0,0.0,0.0,0.0,0.0,0.0,0.0,0.0,0.0,0.0,0.0,0.0,0.0,0.0,0.0,0.0,0.0,0.0,0.007209463219546741,-0.1064697265625,9.988186671022595
1707035049.343033,0.0,0.0,0.0,0.0,0.0002663161090079238,0.001331580545039619,0.0002663161090079238,-2.5803955078125,-0.1112548828125,9.6552490234375,0.0,0.0,0.0,0.0,0.0,0.0,0.0,0.0,0.0,0.0,0.0,0.0,0.0,0.0,0.0,0.0,0.0,0.0,0.0,0.0,0.0,0.0,0.0,0.0,0.0,0.0,0.0,0.017472004939359298,-0.1112548828125,9.994096728087694
1707035049.3609624,0.0,0.0,0.0,0.0,-0.0002663161090079238,0.0018642127630554663,0.0010652644360316951,-2.6067138671875,-0.133984375,9.6600341796875,0.0,0.0,0.0,0.0,0.0,0.0,0.0,0.0,0.0,0.0,0.0,0.0,0.0,0.0,0.0,0.0,0.0,0.0,0.0,0.0,0.0,0.0,0.0,0.0,0.0,0.0,0.0,-0.006698511821295217,-0.133984375,10.00555708934079
1707035049.36202,0.0,0.0,0.0,0.0,0.0002663161090079238,0.001331580545039619,0.0005326322180158476,-2.610302734375,-0.10048828125,9.662426757812499,0.0,0.0,0.0,0.0,0.0,0.0,0.0,0.0,0.0,0.0,0.0,0.0,0.0,0.0,0.0,0.0,0.0,0.0,0.0,0.0,0.0,0.0,0.0,0.0,0.0,0.0,0.0,-0.009542285181673993,-0.10048828125,10.00880013587893
1707035049.3630843,0.0,0.0,0.0,0.0,0.0010652644360316951,0.0,0.0007989483270237714,-2.5935546875,-0.1184326171875,9.663623046875,0.0,0.0,0.0,0.0,0.0,0.0,0.0,0.0,0.0,0.0,0.0,0.0,0.0,0.0,0.0,0.0,0.0,0.0,0.0,0.0,0.0,0.0,0.0,0.0,0.0,0.0,0.0,0.006941205364287217,-0.1184326171875,10.00560283685171
1707035049.402245,0.0,0.0,0.0,0.0,0.0005326322180158476,0.0010652644360316951,0.0002663161090079238,-2.5851806640625004,-0.11962890625,9.643286132812499,0.0,0.0,0.0,0.0,0.0,0.0,0.0,0.0,0.0,0.0,0.0,0.0,0.0,0.0,0.0,0.0,0.0,0.0,0.0,0.0,0.0,0.0,0.0,0.0,0.0,0.0,0.0,0.009742344818873594,-0.11962890625,9.98378843885696
1707035049.4032905,0.0,0.0,0.0,0.0,0.0002663161090079238,0.0018642127630554663,0.0,-2.583984375,-0.11962890625,9.65166015625,0.0,0.0,0.0,0.0,0.0,0.0,0.0,0.0,0.0,0.0,0.0,0.0,0.0,0.0,0.0,0.0,0.0,0.0,0.0,0.0,0.0,0.0,0.0,0.0,0.0,0.0,0.0,0.013073772773724901,-0.11962890625,9.991563846488365
1707035049.4043207,0.0,0.0,0.0,0.0,0.0007989483270237714,0.002663161090079238,0.0010652644360316951,-2.6031250000000004,-0.11962890625,9.6504638671875,0.0,0.0,0.0,0.0,0.0,0.0,0.0,0.0,0.0,0.0,0.0,0.0,0.0,0.0,0.0,0.0,0.0,0.0,0.0,0.0,0.0,0.0,0.0,0.0,0.0,0.0,0.0,-0.005720089027223096,-0.11962890625,9.995382929037689
1707035049.420734,0.0,0.0,0.0,0.0,0.0007989483270237714,0.0015978966540475428,0.0007989483270237714,-2.6126953125,-0.1280029296875,9.658837890625,0.0,0.0,0.0,0.0,0.0,0.0,0.0,0.0,0.0,0.0,0.0,0.0,0.0,0.0,0.0,0.0,0.0,0.0,0.0,0.0,0.0,0.0,0.0,0.0,0.0,0.0,0.0,-0.01278533171981433,-0.1280029296875,10.005956362518551
1707035049.4217973,0.0,0.0,0.0,0.0,0.0005326322180158476,0.0007989483270237714,0.0007989483270237714,-2.624658203125,-0.14475097656250002,9.65166015625,0.0,0.0,0.0,0.0,0.0,0.0,0.0,0.0,0.0,0.0,0.0,0.0,0.0,0.0,0.0,0.0,0.0,0.0,0.0,0.0,0.0,0.0,0.0,0.0,0.0,0.0,0.0,-0.026202538561056254,-0.14475097656250002,10.002134166364101
1707035049.4228244,0.0,0.0,0.0,0.0,0.0007989483270237714,-0.0007989483270237714,0.0007989483270237714,-2.5875732421875,-0.12680664062500002,9.6480712890625,0.0,0.0,0.0,0.0,0.0,0.0,0.0,0.0,0.0,0.0,0.0,0.0,0.0,0.0,0.0,0.0,0.0,0.0,0.0,0.0,0.0,0.0,0.0,0.0,0.0,0.0,0.0,0.008675540608091392,-0.12680664062500002,9.989030964889038
1707035049.46135,0.0,0.0,0.0,0.0,-0.0005326322180158476,0.0010652644360316951,0.0015978966540475428,-2.5899658203125,-0.112451171875,9.6719970703125,0.0,0.0,0.0,0.0,0.0,0.0,0.0,0.0,0.0,0.0,0.0,0.0,0.0,0.0,0.0,0.0,0.0,0.0,0.0,0.0,0.0,0.0,0.0,0.0,0.0,0.0,0.0,0.012583004574125312,-0.112451171875,10.012756460961011
1707035049.4624217,0.0,0.0,0.0,0.0,0.0010652644360316951,0.001331580545039619,0.001331580545039619,-2.5612548828125004,-0.1184326171875,9.6480712890625,0.0,0.0,0.0,0.0,0.0,0.0,0.0,0.0,0.0,0.0,0.0,0.0,0.0,0.0,0.0,0.0,0.0,0.0,0.0,0.0,0.0,0.0,0.0,0.0,0.0,0.0,0.0,0.034089624412949604,-0.1184326171875,9.982191346145916
1707035049.4634871,0.0,0.0,0.0,0.0,0.0007989483270237714,0.0023968449810713144,0.0007989483270237714,-2.5923583984375,-0.1208251953125,9.630126953125,0.0,0.0,0.0,0.0,0.0,0.0,0.0,0.0,0.0,0.0,0.0,0.0,0.0,0.0,0.0,0.0,0.0,0.0,0.0,0.0,0.0,0.0,0.0,0.0,0.0,0.0,0.0,-0.0006085783176486004,-0.1208251953125,9.972946747520838
1707035049.48224,0.0,0.0,0.0,0.0,0.0002663161090079238,0.0023968449810713144,0.0005326322180158476,-2.63662109375,-0.1136474609375,9.6576416015625,0.0,0.0,0.0,0.0,0.0,0.0,0.0,0.0,0.0,0.0,0.0,0.0,0.0,0.0,0.0,0.0,0.0,0.0,0.0,0.0,0.0,0.0,0.0,0.0,0.0,0.0,0.0,-0.036199936030736346,-0.1136474609375,10.011019012112078
1707035049.4834447,0.0,0.0,0.0,0.0,0.0007989483270237714,0.0018642127630554663,-0.0002663161090079238,-2.622265625,-0.1519287109375,9.649267578125,0.0,0.0,0.0,0.0,0.0,0.0,0.0,0.0,0.0,0.0,0.0,0.0,0.0,0.0,0.0,0.0,0.0,0.0,0.0,0.0,0.0,0.0,0.0,0.0,0.0,0.0,0.0,-0.02451395082817065,-0.1519287109375,9.99920201158701
1707035049.4845123,0.0,0.0,0.0,0.0,0.0002663161090079238,0.0007989483270237714,0.0007989483270237714,-2.605517578125,-0.131591796875,9.640893554687501,0.0,0.0,0.0,0.0,0.0,0.0,0.0,0.0,0.0,0.0,0.0,0.0,0.0,0.0,0.0,0.0,0.0,0.0,0.0,0.0,0.0,0.0,0.0,0.0,0.0,0.0,0.0,-0.010517594370618166,-0.131591796875,9.986763227539845
1707035049.520624,0.0,0.0,0.0,0.0,0.0010652644360316951,-0.0002663161090079238,0.0010652644360316951,-2.5744140625,-0.1160400390625,9.634912109375,0.0,0.0,0.0,0.0,0.0,0.0,0.0,0.0,0.0,0.0,0.0,0.0,0.0,0.0,0.0,0.0,0.0,0.0,0.0,0.0,0.0,0.0,0.0,0.0,0.0,0.0,0.0,0.01796277313895933,-0.1160400390625,9.972904113615046
1707035049.5216935,0.0,0.0,0.0,0.0,0.0015978966540475428,0.001331580545039619,0.0005326322180158476,-2.5923583984375,-0.11484375,9.643286132812499,0.0,0.0,0.0,0.0,0.0,0.0,0.0,0.0,0.0,0.0,0.0,0.0,0.0,0.0,0.0,0.0,0.0,0.0,0.0,0.0,0.0,0.0,0.0,0.0,0.0,0.0,0.0,0.0028112310539127883,-0.11484375,9.985653789423266
1707035049.5238366,0.0,0.0,0.0,0.0,0.0002663161090079238,0.002929477199087161,0.0002663161090079238,-2.619873046875,-0.117236328125,9.66123046875,0.0,0.0,0.0,0.0,0.0,0.0,0.0,0.0,0.0,0.0,0.0,0.0,0.0,0.0,0.0,0.0,0.0,0.0,0.0,0.0,0.0,0.0,0.0,0.0,0.0,0.0,0.0,-0.01909466196267351,-0.117236328125,10.010132084339846
1707035049.5605392,0.0,0.0,0.0,0.0,0.0010652644360316951,0.001331580545039619,0.0010652644360316951,-2.61748046875,-0.1112548828125,9.6576416015625,0.0,0.0,0.0,0.0,0.0,0.0,0.0,0.0,0.0,0.0,0.0,0.0,0.0,0.0,0.0,0.0,0.0,0.0,0.0,0.0,0.0,0.0,0.0,0.0,0.0,0.0,0.0,-0.017716965990839384,-0.1112548828125,10.006044743935261
1707035049.565175,0.0,0.0,0.0,0.0,0.0007989483270237714,0.0005326322180158476,0.0002663161090079238,-2.600732421875,-0.0968994140625,9.6528564453125,0.0,0.0,0.0,0.0,0.0,0.0,0.0,0.0,0.0,0.0,0.0,0.0,0.0,0.0,0.0,0.0,0.0,0.0,0.0,0.0,0.0,0.0,0.0,0.0,0.0,0.0,0.0,-0.0027879342501337945,-0.0968994140625,9.997071516770573
1707035049.5662472,0.0,0.0,0.0,0.0,0.0007989483270237714,0.0005326322180158476,0.0,-2.58876953125,-0.107666015625,9.6181640625,0.0,0.0,0.0,0.0,0.0,0.0,0.0,0.0,0.0,0.0,0.0,0.0,0.0,0.0,0.0,0.0,0.0,0.0,0.0,0.0,0.0,0.0,0.0,0.0,0.0,0.0,0.0,-0.00025193904567855085,-0.107666015625,9.96046221596275
1707035049.5673327,0.0,0.0,0.0,0.0,0.0,0.0021305288720633903,0.0005326322180158476,-2.6031250000000004,-0.1040771484375,9.6600341796875,0.0,0.0,0.0,0.0,0.0,0.0,0.0,0.0,0.0,0.0,0.0,0.0,0.0,0.0,0.0,0.0,0.0,0.0,0.0,0.0,0.0,0.0,0.0,0.0,0.0,0.0,0.0,-0.0032329549388148138,-0.1040771484375,10.004624414057638
1707035049.5804255,0.0,0.0,0.0,0.0,0.0002663161090079238,0.0015978966540475428,0.001331580545039619,-2.6150878906250004,-0.11962890625,9.673193359375,0.0,0.0,0.0,0.0,0.0,0.0,0.0,0.0,0.0,0.0,0.0,0.0,0.0,0.0,0.0,0.0,0.0,0.0,0.0,0.0,0.0,0.0,0.0,0.0,0.0,0.0,0.0,-0.011365001842189137,-0.11962890625,10.020440373570578
1707035049.58158,0.0,0.0,0.0,0.0,0.0002663161090079238,0.0007989483270237714,0.0010652644360316951,-2.5935546875,-0.1208251953125,9.646875,0.0,0.0,0.0,0.0,0.0,0.0,0.0,0.0,0.0,0.0,0.0,0.0,0.0,0.0,0.0,0.0,0.0,0.0,0.0,0.0,0.0,0.0,0.0,0.0,0.0,0.0,0.0,0.0025887207095727227,-0.1208251953125,9.989430238066799
1707035049.5826051,0.0,0.0,0.0,0.0,0.0007989483270237714,0.0005326322180158476,0.0002663161090079238,-2.5803955078125,-0.1088623046875,9.630126953125,0.0,0.0,0.0,0.0,0.0,0.0,0.0,0.0,0.0,0.0,0.0,0.0,0.0,0.0,0.0,0.0,0.0,0.0,0.0,0.0,0.0,0.0,0.0,0.0,0.0,0.0,0.0,0.010943277957287112,-0.1088623046875,9.969837829910329
1707035049.6207993,0.0,0.0,0.0,0.0,0.0005326322180158476,0.0021305288720633903,0.0002663161090079238,-2.6126953125,-0.1052734375,9.6504638671875,0.0,0.0,0.0,0.0,0.0,0.0,0.0,0.0,0.0,0.0,0.0,0.0,0.0,0.0,0.0,0.0,0.0,0.0,0.0,0.0,0.0,0.0,0.0,0.0,0.0,0.0,0.0,-0.014961574047171577,-0.1052734375,9.997870063126097
1707035049.6218843,0.0,0.0,0.0,0.0,0.0005326322180158476,0.0021305288720633903,0.0007989483270237714,-2.6091064453125004,-0.1184326171875,9.6552490234375,0.0,0.0,0.0,0.0,0.0,0.0,0.0,0.0,0.0,0.0,0.0,0.0,0.0,0.0,0.0,0.0,0.0,0.0,0.0,0.0,0.0,0.0,0.0,0.0,0.0,0.0,0.0,-0.01025245012048659,-0.1184326171875,10.001558130352919
1707035049.6230907,0.0,0.0,0.0,0.0,-0.0002663161090079238,0.0015978966540475428,0.0007989483270237714,-2.58876953125,-0.136376953125,9.6564453125,0.0,0.0,0.0,0.0,0.0,0.0,0.0,0.0,0.0,0.0,0.0,0.0,0.0,0.0,0.0,0.0,0.0,0.0,0.0,0.0,0.0,0.0,0.0,0.0,0.0,0.0,0.0,0.009696597307955024,-0.136376953125,9.997428156042544
1707035049.643014,0.0,0.0,0.0,0.0,0.0002663161090079238,0.0021305288720633903,0.0002663161090079238,-2.5827880859375,-0.1016845703125,9.619360351562499,0.0,0.0,0.0,0.0,0.0,0.0,0.0,0.0,0.0,0.0,0.0,0.0,0.0,0.0,0.0,0.0,0.0,0.0,0.0,0.0,0.0,0.0,0.0,0.0,0.0,0.0,0.0,0.005834880852840119,-0.1016845703125,9.960062942784987
1707035049.644084,0.0,0.0,0.0,0.0,0.0,0.002663161090079238,0.0007989483270237714,-2.595947265625,-0.1016845703125,9.6528564453125,0.0,0.0,0.0,0.0,0.0,0.0,0.0,0.0,0.0,0.0,0.0,0.0,0.0,0.0,0.0,0.0,0.0,0.0,0.0,0.0,0.0,0.0,0.0,0.0,0.0,0.0,0.0,0.001832808259840668,-0.1016845703125,9.995827949726369
1707035049.6451802,0.0,0.0,0.0,0.0,0.0005326322180158476,0.0002663161090079238,0.0015978966540475428,-2.60791015625,-0.1303955078125,9.649267578125,0.0,0.0,0.0,0.0,0.0,0.0,0.0,0.0,0.0,0.0,0.0,0.0,0.0,0.0,0.0,0.0,0.0,0.0,0.0,0.0,0.0,0.0,0.0,0.0,0.0,0.0,0.0,-0.01065172329824815,-0.1303955078125,9.995471310454398
