timestamp,orien_x,orien_y,orien_z,orien_w,ang_vel_x,ang_vel_y,ang_vel_z,lin_acc_x,lin_acc_y,lin_acc_z,orien_cov_01,orien_cov_02,orien_cov_03,orien_cov_04,orien_cov_05,orien_cov_06,orien_cov_07,orien_cov_08,orien_cov_09,ang_vel_cov_01,ang_vel_cov_02,ang_vel_cov_03,ang_vel_cov_04,ang_vel_cov_05,ang_vel_cov_06,ang_vel_cov_07,ang_vel_cov_08,ang_vel_cov_09,lin_acc_cov_01,lin_acc_cov_02,lin_acc_cov_03,lin_acc_cov_04,lin_acc_cov_05,lin_acc_cov_06,lin_acc_cov_07,lin_acc_cov_08,lin_acc_cov_09,lin_acc_x_calib,lin_acc_y_calib,lin_acc_z_calib
1707028614.00898,0.0,0.0,0.0,0.0,0.0010652644360316951,0.0,0.0021305288720633903,-2.5660400390625,-0.16748046875,9.634912109375,0.0,0.0,0.0,0.0,0.0,0.0,0.0,0.0,0.0,0.0,0.0,0.0,0.0,0.0,0.0,0.0,0.0,0.0,0.0,0.0,0.0,0.0,0.0,0.0,0.0,0.0,0.0,0.016431697428653802,-0.16748046875,9.970748358913312
1707028614.010094,0.0,0.0,0.0,0.0,0.0015978966540475428,0.002663161090079238,0.0010652644360316951,-2.5780029296875,-0.16269531250000002,9.634912109375,0.0,0.0,0.0,0.0,0.0,0.0,0.0,0.0,0.0,0.0,0.0,0.0,0.0,0.0,0.0,0.0,0.0,0.0,0.0,0.0,0.0,0.0,0.0,0.0,0.0,0.0,0.0,0.0048768477906455665,-0.16269531250000002,9.973846132621755
1707028614.0111675,0.0,0.0,0.0,0.0,0.0,0.004793689962142629,0.0010652644360316951,-2.6330322265625004,-0.12919921875,9.68994140625,0.0,0.0,0.0,0.0,0.0,0.0,0.0,0.0,0.0,0.0,0.0,0.0,0.0,0.0,0.0,0.0,0.0,0.0,0.0,0.0,0.0,0.0,0.0,0.0,0.0,0.0,0.0,-0.03402570148534734,-0.12919921875,10.041248200015442
1707028614.0518868,0.0,0.0,0.0,0.0,0.0002663161090079238,0.001331580545039619,0.0007989483270237714,-2.61748046875,-0.1280029296875,9.654052734375,0.0,0.0,0.0,0.0,0.0,0.0,0.0,0.0,0.0,0.0,0.0,0.0,0.0,0.0,0.0,0.0,0.0,0.0,0.0,0.0,0.0,0.0,0.0,0.0,0.0,0.0,0.0,-0.028297718081270684,-0.1280029296875,10.002556545280438
1707028614.0529706,0.0,0.0,0.0,0.0,0.0007989483270237714,-0.0007989483270237714,0.0007989483270237714,-2.5791992187500004,-0.1638916015625,9.640893554687501,0.0,0.0,0.0,0.0,0.0,0.0,0.0,0.0,0.0,0.0,0.0,0.0,0.0,0.0,0.0,0.0,0.0,0.0,0.0,0.0,0.0,0.0,0.0,0.0,0.0,0.0,0.0,0.005270249681066819,-0.1638916015625,9.979933334811607
1707028614.0540245,0.0,0.0,0.0,0.0,0.0002663161090079238,0.0007989483270237714,0.0005326322180158476,-2.538525390625,-0.1614990234375,9.638500976562499,0.0,0.0,0.0,0.0,0.0,0.0,0.0,0.0,0.0,0.0,0.0,0.0,0.0,0.0,0.0,0.0,0.0,0.0,0.0,0.0,0.0,0.0,0.0,0.0,0.0,0.0,0.0,0.04393718370860622,-0.1614990234375,9.96708993427529
1707028614.069107,0.0,0.0,0.0,0.0,0.001331580545039619,0.002929477199087161,0.001331580545039619,-2.572021484375,-0.1591064453125,9.6755859375,0.0,0.0,0.0,0.0,0.0,0.0,0.0,0.0,0.0,0.0,0.0,0.0,0.0,0.0,0.0,0.0,0.0,0.0,0.0,0.0,0.0,0.0,0.0,0.0,0.0,0.0,0.0,0.021186703218361913,-0.1591064453125,10.011583734536762
1707028614.070196,0.0,0.0,0.0,0.0,0.0005326322180158476,0.0018642127630554663,0.0010652644360316951,-2.572021484375,-0.13278808593750002,9.6552490234375,0.0,0.0,0.0,0.0,0.0,0.0,0.0,0.0,0.0,0.0,0.0,0.0,0.0,0.0,0.0,0.0,0.0,0.0,0.0,0.0,0.0,0.0,0.0,0.0,0.0,0.0,0.0,0.01592048791400602,-0.13278808593750002,9.991940490152148
1707028614.0712657,0.0,0.0,0.0,0.0,0.0007989483270237714,0.0007989483270237714,0.0015978966540475428,-2.5540771484375,-0.1375732421875,9.639697265625,0.0,0.0,0.0,0.0,0.0,0.0,0.0,0.0,0.0,0.0,0.0,0.0,0.0,0.0,0.0,0.0,0.0,0.0,0.0,0.0,0.0,0.0,0.0,0.0,0.0,0.0,0.0,0.029225656550039947,-0.1375732421875,9.97227252506007
1707028614.1090672,0.0,0.0,0.0,0.0,0.0015978966540475428,0.0023968449810713144,0.0010652644360316951,-2.5827880859375,-0.13876953125000002,9.640893554687501,0.0,0.0,0.0,0.0,0.0,0.0,0.0,0.0,0.0,0.0,0.0,0.0,0.0,0.0,0.0,0.0,0.0,0.0,0.0,0.0,0.0,0.0,0.0,0.0,0.0,0.0,0.0,0.0018037947896645257,-0.13876953125000002,9.980862666924141
1707028614.1101458,0.0,0.0,0.0,0.0,0.0015978966540475428,0.002929477199087161,0.001331580545039619,-2.624658203125,-0.155517578125,9.6743896484375,0.0,0.0,0.0,0.0,0.0,0.0,0.0,0.0,0.0,0.0,0.0,0.0,0.0,0.0,0.0,0.0,0.0,0.0,0.0,0.0,0.0,0.0,0.0,0.0,0.0,0.0,0.0,-0.029964412559718934,-0.155517578125,10.02405845389012
1707028614.1116407,0.0,0.0,0.0,0.0,0.0002663161090079238,0.0005326322180158476,0.001331580545039619,-2.5935546875,-0.1495361328125,9.6576416015625,0.0,0.0,0.0,0.0,0.0,0.0,0.0,0.0,0.0,0.0,0.0,0.0,0.0,0.0,0.0,0.0,0.0,0.0,0.0,0.0,0.0,0.0,0.0,0.0,0.0,0.0,0.0,-0.004258686692720559,-0.1495361328125,9.99982745275495
1707028614.1301088,0.0,0.0,0.0,0.0,-0.0002663161090079238,-0.0002663161090079238,0.0002663161090079238,-2.5672363281250004,-0.1184326171875,9.6337158203125,0.0,0.0,0.0,0.0,0.0,0.0,0.0,0.0,0.0,0.0,0.0,0.0,0.0,0.0,0.0,0.0,0.0,0.0,0.0,0.0,0.0,0.0,0.0,0.0,0.0,0.0,0.0,0.014966435094007746,-0.1184326171875,9.969902651320355
1707028614.1312382,0.0,0.0,0.0,0.0,0.0007989483270237714,0.0007989483270237714,0.0005326322180158476,-2.5516845703125,-0.102880859375,9.6181640625,0.0,0.0,0.0,0.0,0.0,0.0,0.0,0.0,0.0,0.0,0.0,0.0,0.0,0.0,0.0,0.0,0.0,0.0,0.0,0.0,0.0,0.0,0.0,0.0,0.0,0.0,0.0,0.025960633802440736,-0.102880859375,9.950854240969965
1707028614.132388,0.0,0.0,0.0,0.0,0.0007989483270237714,0.0021305288720633903,0.0005326322180158476,-2.5899658203125,-0.1303955078125,9.6528564453125,0.0,0.0,0.0,0.0,0.0,0.0,0.0,0.0,0.0,0.0,0.0,0.0,0.0,0.0,0.0,0.0,0.0,0.0,0.0,0.0,0.0,0.0,0.0,0.0,0.0,0.0,0.0,-0.0020313412846957313,-0.1303955078125,9.994276180787214
1707028614.1778302,0.0,0.0,0.0,0.0,0.0005326322180158476,0.0021305288720633903,0.001331580545039619,-2.595947265625,-0.1435546875,9.6743896484375,0.0,0.0,0.0,0.0,0.0,0.0,0.0,0.0,0.0,0.0,0.0,0.0,0.0,0.0,0.0,0.0,0.0,0.0,0.0,0.0,0.0,0.0,0.0,0.0,0.0,0.0,0.0,-0.0022327734284992573,-0.1435546875,10.016623796989853
1707028614.1790216,0.0,0.0,0.0,0.0,0.0005326322180158476,0.0002663161090079238,0.0010652644360316951,-2.5636474609375,-0.155517578125,9.644482421875,0.0,0.0,0.0,0.0,0.0,0.0,0.0,0.0,0.0,0.0,0.0,0.0,0.0,0.0,0.0,0.0,0.0,0.0,0.0,0.0,0.0,0.0,0.0,0.0,0.0,0.0,0.0,0.021220886323011,-0.155517578125,9.97937268388203
1707028614.1800647,0.0,0.0,0.0,0.0,0.001331580545039619,0.001331580545039619,0.0005326322180158476,-2.56484375,-0.136376953125,9.6552490234375,0.0,0.0,0.0,0.0,0.0,0.0,0.0,0.0,0.0,0.0,0.0,0.0,0.0,0.0,0.0,0.0,0.0,0.0,0.0,0.0,0.0,0.0,0.0,0.0,0.0,0.0,0.0,0.02285339769681105,-0.136376953125,9.990081825927081
1707028614.2142887,0.0,0.0,0.0,0.0,0.0010652644360316951,0.0023968449810713144,0.0005326322180158476,-2.581591796875,-0.14833984375,9.6564453125,0.0,0.0,0.0,0.0,0.0,0.0,0.0,0.0,0.0,0.0,0.0,0.0,0.0,0.0,0.0,0.0,0.0,0.0,0.0,0.0,0.0,0.0,0.0,0.0,0.0,0.0,0.0,0.006986385574443421,-0.14833984375,9.995574194082705
1707028614.2153542,0.0,0.0,0.0,0.0,0.0015978966540475428,0.002663161090079238,0.0010652644360316951,-2.6031250000000004,-0.1519287109375,9.666015625,0.0,0.0,0.0,0.0,0.0,0.0,0.0,0.0,0.0,0.0,0.0,0.0,0.0,0.0,0.0,0.0,0.0,0.0,0.0,0.0,0.0,0.0,0.0,0.0,0.0,0.0,0.0,-0.01133412480721585,-0.1519287109375,10.010394066468313
1707028614.2165806,0.0,0.0,0.0,0.0,0.001331580545039619,0.0005326322180158476,0.001331580545039619,-2.5791992187500004,-0.1495361328125,9.6600341796875,0.0,0.0,0.0,0.0,0.0,0.0,0.0,0.0,0.0,0.0,0.0,0.0,0.0,0.0,0.0,0.0,0.0,0.0,0.0,0.0,0.0,0.0,0.0,0.0,0.0,0.0,0.0,0.010226687614578456,-0.1495361328125,9.998421094232418
1707028614.2292342,0.0,0.0,0.0,0.0,0.0005326322180158476,0.0002663161090079238,0.001331580545039619,-2.5756103515625,-0.160302734375,9.65166015625,0.0,0.0,0.0,0.0,0.0,0.0,0.0,0.0,0.0,0.0,0.0,0.0,0.0,0.0,0.0,0.0,0.0,0.0,0.0,0.0,0.0,0.0,0.0,0.0,0.0,0.0,0.0,0.01152470091006963,-0.160302734375,9.98940336737328
1707028614.2304285,0.0,0.0,0.0,0.0,0.0007989483270237714,0.0018642127630554663,0.0010652644360316951,-2.610302734375,-0.1662841796875,9.6755859375,0.0,0.0,0.0,0.0,0.0,0.0,0.0,0.0,0.0,0.0,0.0,0.0,0.0,0.0,0.0,0.0,0.0,0.0,0.0,0.0,0.0,0.0,0.0,0.0,0.0,0.0,0.0,-0.015788815623264618,-0.1662841796875,10.021496610403785
1707028614.231504,0.0,0.0,0.0,0.0,0.001331580545039619,0.0002663161090079238,0.0,-2.5756103515625,-0.1471435546875,9.664819335937501,0.0,0.0,0.0,0.0,0.0,0.0,0.0,0.0,0.0,0.0,0.0,0.0,0.0,0.0,0.0,0.0,0.0,0.0,0.0,0.0,0.0,0.0,0.0,0.0,0.0,0.0,0.0,0.014932251989359102,-0.1471435546875,10.002113701975091
1707028614.2489083,0.0,0.0,0.0,0.0,0.0021305288720633903,0.002929477199087161,0.0,-2.59833984375,-0.1244140625,9.6552490234375,0.0,0.0,0.0,0.0,0.0,0.0,0.0,0.0,0.0,0.0,0.0,0.0,0.0,0.0,0.0,0.0,0.0,0.0,0.0,0.0,0.0,0.0,0.0,0.0,0.0,0.0,0.0,-0.009500181289612275,-0.1244140625,9.998755592310726
1707028614.2499936,0.0,0.0,0.0,0.0,0.0018642127630554663,0.002929477199087161,0.001331580545039619,-2.6091064453125004,-0.1423583984375,9.6528564453125,0.0,0.0,0.0,0.0,0.0,0.0,0.0,0.0,0.0,0.0,0.0,0.0,0.0,0.0,0.0,0.0,0.0,0.0,0.0,0.0,0.0,0.0,0.0,0.0,0.0,0.0,0.0,-0.02051910070550944,-0.1423583984375,9.999232618720725
1707028614.2510436,0.0,0.0,0.0,0.0,0.0007989483270237714,0.0031957933080950856,0.0018642127630554663,-2.6378173828125,-0.141162109375,9.673193359375,0.0,0.0,0.0,0.0,0.0,0.0,0.0,0.0,0.0,0.0,0.0,0.0,0.0,0.0,0.0,0.0,0.0,0.0,0.0,0.0,0.0,0.0,0.0,0.0,0.0,0.0,0.0,-0.04298452453237278,-0.141162109375,10.026310520005607
1707028614.2910197,0.0,0.0,0.0,0.0,0.0002663161090079238,0.0007989483270237714,0.0005326322180158476,-2.5995361328125,-0.145947265625,9.6564453125,0.0,0.0,0.0,0.0,0.0,0.0,0.0,0.0,0.0,0.0,0.0,0.0,0.0,0.0,0.0,0.0,0.0,0.0,0.0,0.0,0.0,0.0,0.0,0.0,0.0,0.0,0.0,-0.010345888882568932,-0.145947265625,10.000220854645372
1707028614.2921047,0.0,0.0,0.0,0.0,0.0010652644360316951,0.0010652644360316951,0.0002663161090079238,-2.586376953125,-0.13278808593750002,9.664819335937501,0.0,0.0,0.0,0.0,0.0,0.0,0.0,0.0,0.0,0.0,0.0,0.0,0.0,0.0,0.0,0.0,0.0,0.0,0.0,0.0,0.0,0.0,0.0,0.0,0.0,0.0,0.0,0.004532887315151779,-0.13278808593750002,10.004901698312691
1707028614.2931714,0.0,0.0,0.0,0.0,0.0018642127630554663,0.0018642127630554663,0.0,-2.5660400390625,-0.1160400390625,9.663623046875,0.0,0.0,0.0,0.0,0.0,0.0,0.0,0.0,0.0,0.0,0.0,0.0,0.0,0.0,0.0,0.0,0.0,0.0,0.0,0.0,0.0,0.0,0.0,0.0,0.0,0.0,0.0,0.023866354328921258,-0.1160400390625,9.998479998044532
1707028614.3097231,0.0,0.0,0.0,0.0,0.0007989483270237714,0.0031957933080950856,0.0018642127630554663,-2.605517578125,-0.136376953125,9.6719970703125,0.0,0.0,0.0,0.0,0.0,0.0,0.0,0.0,0.0,0.0,0.0,0.0,0.0,0.0,0.0,0.0,0.0,0.0,0.0,0.0,0.0,0.0,0.0,0.0,0.0,0.0,0.0,-0.012096207880594623,-0.136376953125,10.016791046029006
1707028614.3110983,0.0,0.0,0.0,0.0,0.0002663161090079238,0.0018642127630554663,0.0015978966540475428,-2.6019287109375,-0.141162109375,9.664819335937501,0.0,0.0,0.0,0.0,0.0,0.0,0.0,0.0,0.0,0.0,0.0,0.0,0.0,0.0,0.0,0.0,0.0,0.0,0.0,0.0,0.0,0.0,0.0,0.0,0.0,0.0,0.0,-0.010488417214259194,-0.141162109375,10.008928804133669
1707028614.3151689,0.0,0.0,0.0,0.0,0.0002663161090079238,0.0018642127630554663,0.0005326322180158476,-2.5947509765625,-0.15671386718750002,9.640893554687501,0.0,0.0,0.0,0.0,0.0,0.0,0.0,0.0,0.0,0.0,0.0,0.0,0.0,0.0,0.0,0.0,0.0,0.0,0.0,0.0,0.0,0.0,0.0,0.0,0.0,0.0,0.0,-0.00975105484834371,-0.15671386718750002,9.983960440632586
1707028614.349271,0.0,0.0,0.0,0.0,0.0010652644360316951,0.0010652644360316951,0.0005326322180158476,-2.5923583984375,-0.1495361328125,9.6564453125,0.0,0.0,0.0,0.0,0.0,0.0,0.0,0.0,0.0,0.0,0.0,0.0,0.0,0.0,0.0,0.0,0.0,0.0,0.0,0.0,0.0,0.0,0.0,0.0,0.0,0.0,0.0,-0.003412979099763902,-0.1495361328125,9.998362190420305
1707028614.3503437,0.0,0.0,0.0,0.0,0.0010652644360316951,0.0021305288720633903,0.0002663161090079238,-2.6067138671875,-0.1244140625,9.6600341796875,0.0,0.0,0.0,0.0,0.0,0.0,0.0,0.0,0.0,0.0,0.0,0.0,0.0,0.0,0.0,0.0,0.0,0.0,0.0,0.0,0.0,0.0,0.0,0.0,0.0,0.0,0.0,-0.016349466552840308,-0.1244140625,10.00554597376184
1707028614.3514159,0.0,0.0,0.0,0.0,0.0018642127630554663,0.0010652644360316951,0.0010652644360316951,-2.586376953125,-0.15073242187500002,9.6552490234375,0.0,0.0,0.0,0.0,0.0,0.0,0.0,0.0,0.0,0.0,0.0,0.0,0.0,0.0,0.0,0.0,0.0,0.0,0.0,0.0,0.0,0.0,0.0,0.0,0.0,0.0,0.0,0.0020546683483959605,-0.15073242187500002,9.995657818602282
1707028614.3757117,0.0,0.0,0.0,0.0,0.0015978966540475428,0.001331580545039619,0.0015978966540475428,-2.5780029296875,-0.15671386718750002,9.6504638671875,0.0,0.0,0.0,0.0,0.0,0.0,0.0,0.0,0.0,0.0,0.0,0.0,0.0,0.0,0.0,0.0,0.0,0.0,0.0,0.0,0.0,0.0,0.0,0.0,0.0,0.0,0.0,0.008903953611623994,-0.15671386718750002,9.988867437151168
1707028614.3767774,0.0,0.0,0.0,0.0,0.0010652644360316951,0.001331580545039619,0.0007989483270237714,-2.5791992187500004,-0.153125,9.638500976562499,0.0,0.0,0.0,0.0,0.0,0.0,0.0,0.0,0.0,0.0,0.0,0.0,0.0,0.0,0.0,0.0,0.0,0.0,0.0,0.0,0.0,0.0,0.0,0.0,0.0,0.0,0.0,0.00465069493937742,-0.153125,9.977622364884002
1707028614.377854,0.0,0.0,0.0,0.0,0.0010652644360316951,0.0018642127630554663,0.0007989483270237714,-2.5995361328125,-0.1614990234375,9.6815673828125,0.0,0.0,0.0,0.0,0.0,0.0,0.0,0.0,0.0,0.0,0.0,0.0,0.0,0.0,0.0,0.0,0.0,0.0,0.0,0.0,0.0,0.0,0.0,0.0,0.0,0.0,0.0,-0.0038405640948351305,-0.1614990234375,10.024486038885188
1707028614.4175184,0.0,0.0,0.0,0.0,0.0005326322180158476,0.0010652644360316951,0.0007989483270237714,-2.6019287109375,-0.1256103515625,9.667211914062499,0.0,0.0,0.0,0.0,0.0,0.0,0.0,0.0,0.0,0.0,0.0,0.0,0.0,0.0,0.0,0.0,0.0,0.0,0.0,0.0,0.0,0.0,0.0,0.0,0.0,0.0,0.0,-0.009868862472570683,-0.1256103515625,10.011239774061268
1707028614.4185798,0.0,0.0,0.0,0.0,0.0010652644360316951,0.0023968449810713144,0.0007989483270237714,-2.581591796875,-0.1495361328125,9.6552490234375,0.0,0.0,0.0,0.0,0.0,0.0,0.0,0.0,0.0,0.0,0.0,0.0,0.0,0.0,0.0,0.0,0.0,0.0,0.0,0.0,0.0,0.0,0.0,0.0,0.0,0.0,0.0,0.006676608203599166,-0.1495361328125,9.994418709118904
1707028614.4196577,0.0,0.0,0.0,0.0,0.0010652644360316951,0.0018642127630554663,0.0010652644360316951,-2.58876953125,-0.1244140625,9.6480712890625,0.0,0.0,0.0,0.0,0.0,0.0,0.0,0.0,0.0,0.0,0.0,0.0,0.0,0.0,0.0,0.0,0.0,0.0,0.0,0.0,0.0,0.0,0.0,0.0,0.0,0.0,0.0,-0.002114965804272728,-0.1244140625,9.989344463561165
1707028614.4317503,0.0,0.0,0.0,0.0,0.0010652644360316951,0.002663161090079238,0.001331580545039619,-2.6114990234375,-0.153125,9.682763671875,0.0,0.0,0.0,0.0,0.0,0.0,0.0,0.0,0.0,0.0,0.0,0.0,0.0,0.0,0.0,0.0,0.0,0.0,0.0,0.0,0.0,0.0,0.0,0.0,0.0,0.0,0.0,-0.01508563636199911,-0.153125,10.028739297557435
1707028614.432821,0.0,0.0,0.0,0.0,0.0010652644360316951,0.0005326322180158476,0.0007989483270237714,-2.5684326171875,-0.1471435546875,9.668408203125,0.0,0.0,0.0,0.0,0.0,0.0,0.0,0.0,0.0,0.0,0.0,0.0,0.0,0.0,0.0,0.0,0.0,0.0,0.0,0.0,0.0,0.0,0.0,0.0,0.0,0.0,0.0,0.02279449388469823,-0.1471435546875,10.003721492641423
1707028614.4338665,0.0,0.0,0.0,0.0,0.001331580545039619,0.0005326322180158476,0.0005326322180158476,-2.5516845703125,-0.14475097656250002,9.63251953125,0.0,0.0,0.0,0.0,0.0,0.0,0.0,0.0,0.0,0.0,0.0,0.0,0.0,0.0,0.0,0.0,0.0,0.0,0.0,0.0,0.0,0.0,0.0,0.0,0.0,0.0,0.0,0.029677962252574464,-0.14475097656250002,9.964720060535576
1707028614.468594,0.0,0.0,0.0,0.0,0.0015978966540475428,0.0037284255261109327,0.0010652644360316951,-2.595947265625,-0.13278808593750002,9.664819335937501,0.0,0.0,0.0,0.0,0.0,0.0,0.0,0.0,0.0,0.0,0.0,0.0,0.0,0.0,0.0,0.0,0.0,0.0,0.0,0.0,0.0,0.0,0.0,0.0,0.0,0.0,0.0,-0.004710992395255076,-0.13278808593750002,10.007379917279447
1707028614.469669,0.0,0.0,0.0,0.0,0.0010652644360316951,0.002663161090079238,0.001331580545039619,-2.6318359375,-0.12919921875,9.6983154296875,0.0,0.0,0.0,0.0,0.0,0.0,0.0,0.0,0.0,0.0,0.0,0.0,0.0,0.0,0.0,0.0,0.0,0.0,0.0,0.0,0.0,0.0,0.0,0.0,0.0,0.0,0.0,-0.030701774925634417,-0.12919921875,10.049026817391203
1707028614.470738,0.0,0.0,0.0,0.0,0.0005326322180158476,0.0002663161090079238,0.0018642127630554663,-2.586376953125,-0.160302734375,9.654052734375,0.0,0.0,0.0,0.0,0.0,0.0,0.0,0.0,0.0,0.0,0.0,0.0,0.0,0.0,0.0,0.0,0.0,0.0,0.0,0.0,0.0,0.0,0.0,0.0,0.0,0.0,0.0,0.001744890977551261,-0.160302734375,9.994502333638483
1707028614.5087667,0.0,0.0,0.0,0.0,0.001331580545039619,0.0002663161090079238,0.001331580545039619,-2.5803955078125,-0.136376953125,9.643286132812499,0.0,0.0,0.0,0.0,0.0,0.0,0.0,0.0,0.0,0.0,0.0,0.0,0.0,0.0,0.0,0.0,0.0,0.0,0.0,0.0,0.0,0.0,0.0,0.0,0.0,0.0,0.0,0.004734319458954861,-0.136376953125,9.982554082110049
1707028614.5098279,0.0,0.0,0.0,0.0,0.0018642127630554663,0.0010652644360316951,0.0010652644360316951,-2.58876953125,-0.155517578125,9.6600341796875,0.0,0.0,0.0,0.0,0.0,0.0,0.0,0.0,0.0,0.0,0.0,0.0,0.0,0.0,0.0,0.0,0.0,0.0,0.0,0.0,0.0,0.0,0.0,0.0,0.0,0.0,0.0,0.000982807904172045,-0.155517578125,10.000899313199174
1707028614.510892,0.0,0.0,0.0,0.0,0.0010652644360316951,0.00346210941710301,0.0010652644360316951,-2.6449951171875004,-0.13876953125000002,9.68037109375,0.0,0.0,0.0,0.0,0.0,0.0,0.0,0.0,0.0,0.0,0.0,0.0,0.0,0.0,0.0,0.0,0.0,0.0,0.0,0.0,0.0,0.0,0.0,0.0,0.0,0.0,0.0,-0.04805877009011095,-0.13876953125000002,10.03510209401348
1707028614.511958,0.0,0.0,0.0,0.0,0.0010652644360316951,0.0007989483270237714,0.0005326322180158476,-2.6114990234375,-0.112451171875,9.688745117187501,0.0,0.0,0.0,0.0,0.0,0.0,0.0,0.0,0.0,0.0,0.0,0.0,0.0,0.0,0.0,0.0,0.0,0.0,0.0,0.0,0.0,0.0,0.0,0.0,0.0,0.0,0.0,-0.013536749507776058,-0.112451171875,10.034516722376441
1707028614.540196,0.0,0.0,0.0,0.0,0.001331580545039619,-0.0010652644360316951,0.0010652644360316951,-2.56484375,-0.14833984375,9.630126953125,0.0,0.0,0.0,0.0,0.0,0.0,0.0,0.0,0.0,0.0,0.0,0.0,0.0,0.0,0.0,0.0,0.0,0.0,0.0,0.0,0.0,0.0,0.0,0.0,0.0,0.0,0.0,0.016348072909076805,-0.14833984375,9.965816641687264
1707028614.541332,0.0,0.0,0.0,0.0,0.001331580545039619,0.0023968449810713144,0.001331580545039619,-2.6091064453125004,-0.16748046875,9.682763671875,0.0,0.0,0.0,0.0,0.0,0.0,0.0,0.0,0.0,0.0,0.0,0.0,0.0,0.0,0.0,0.0,0.0,0.0,0.0,0.0,0.0,0.0,0.0,0.0,0.0,0.0,0.0,-0.012774666434397286,-0.16748046875,10.028119742815745
1707028614.543034,0.0,0.0,0.0,0.0,0.001331580545039619,0.0018642127630554663,0.0005326322180158476,-2.6150878906250004,-0.14833984375,9.688745117187501,0.0,0.0,0.0,0.0,0.0,0.0,0.0,0.0,0.0,0.0,0.0,0.0,0.0,0.0,0.0,0.0,0.0,0.0,0.0,0.0,0.0,0.0,0.0,0.0,0.0,0.0,0.0,-0.01700320439917835,-0.14833984375,10.035446054488975
1707028614.5712519,0.0,0.0,0.0,0.0,0.001331580545039619,0.0,0.0007989483270237714,-2.581591796875,-0.141162109375,9.639697265625,0.0,0.0,0.0,0.0,0.0,0.0,0.0,0.0,0.0,0.0,0.0,0.0,0.0,0.0,0.0,0.0,0.0,0.0,0.0,0.0,0.0,0.0,0.0,0.0,0.0,0.0,0.0,0.0026495023826207387,-0.141162109375,9.979397404589493
1707028614.5724204,0.0,0.0,0.0,0.0,0.0023968449810713144,0.02530003035575276,-0.006657902725198095,0.8732910156250001,-3.954931640625,7.858422851562499,0.0,0.0,0.0,0.0,0.0,0.0,0.0,0.0,0.0,0.0,0.0,0.0,0.0,0.0,0.0,0.0,0.0,0.0,0.0,0.0,0.0,0.0,0.0,0.0,0.0,0.0,0.0,2.8784315726519942,-3.954931640625,7.364243246491196
1707028614.5735044,0.0,0.0,0.0,0.0,0.060187440635790776,0.18082863801638027,-0.052464273474560986,-8.561840820312499,2.0923095703125,14.9906982421875,0.0,0.0,0.0,0.0,0.0,0.0,0.0,0.0,0.0,0.0,0.0,0.0,0.0,0.0,0.0,0.0,0.0,0.0,0.0,0.0,0.0,0.0,0.0,0.0,0.0,0.0,0.0,-4.38798565187038,2.0923095703125,16.69645872452217
1707028614.5887747,0.0,0.0,0.0,0.0,-0.005060006071150552,-0.061519021180830406,-0.0346210941710301,-3.579296875,1.04794921875,10.8204345703125,0.0,0.0,0.0,0.0,0.0,0.0,0.0,0.0,0.0,0.0,0.0,0.0,0.0,0.0,0.0,0.0,0.0,0.0,0.0,0.0,0.0,0.0,0.0,0.0,0.0,0.0,0.0,-0.6552746924037716,1.04794921875,11.378215391145211
1707028614.5898943,0.0,0.0,0.0,0.0,-0.022104237047657675,-0.1286306806508272,0.029294771990871615,0.294287109375,0.7046142578125001,6.701611328125001,0.0,0.0,0.0,0.0,0.0,0.0,0.0,0.0,0.0,0.0,0.0,0.0,0.0,0.0,0.0,0.0,0.0,0.0,0.0,0.0,0.0,0.0,0.0,0.0,0.0,0.0,0.0,2.0196221325657797,0.7046142578125001,6.396821533984521
1707028614.5909708,0.0,0.0,0.0,0.0,-0.027963191445832,0.03302319751698255,0.08788431597261485,-1.8291259765625,0.4414306640625,8.825024414062499,0.0,0.0,0.0,0.0,0.0,0.0,0.0,0.0,0.0,0.0,0.0,0.0,0.0,0.0,0.0,0.0,0.0,0.0,0.0,0.0,0.0,0.0,0.0,0.0,0.0,0.0,0.0,0.5184911550682532,0.4414306640625,8.997662177979947
1707028614.6162727,0.0,0.0,0.0,0.0,-0.029827404208887465,0.07163903332313151,0.1355548994850332,-2.5684326171875,-1.87099609375,9.3920654296875,0.0,0.0,0.0,0.0,0.0,0.0,0.0,0.0,0.0,0.0,0.0,0.0,0.0,0.0,0.0,0.0,0.0,0.0,0.0,0.0,0.0,0.0,0.0,0.0,0.0,0.0,0.0,-0.048764078780376696,-1.87099609375,9.73680446600343
1707028614.6173751,0.0,0.0,0.0,0.0,0.005858954398174322,0.07536745884924244,0.13129384174090644,-4.273144531250001,-0.6759033203125,11.1075439453125,0.0,0.0,0.0,0.0,0.0,0.0,0.0,0.0,0.0,0.0,0.0,0.0,0.0,0.0,0.0,0.0,0.0,0.0,0.0,0.0,0.0,0.0,0.0,0.0,0.0,0.0,0.0,-1.2511094024055804,-0.6759033203125,11.835202657547208
1707028614.618471,0.0,0.0,0.0,0.0,0.010652644360316953,-0.026098978682776528,0.04287689355027573,-3.5446044921875,-0.514404296875,9.666015625,0.0,0.0,0.0,0.0,0.0,0.0,0.0,0.0,0.0,0.0,0.0,0.0,0.0,0.0,0.0,0.0,0.0,0.0,0.0,0.0,0.0,0.0,0.0,0.0,0.0,0.0,0.0,-0.9207007913184708,-0.514404296875,10.25418885732292
1707028614.6487474,0.0,0.0,0.0,0.0,0.022903185374681445,-0.10306433418606652,-0.014381069886427884,-1.6377197265625,-0.1435546875,8.43623046875,0.0,0.0,0.0,0.0,0.0,0.0,0.0,0.0,0.0,0.0,0.0,0.0,0.0,0.0,0.0,0.0,0.0,0.0,0.0,0.0,0.0,0.0,0.0,0.0,0.0,0.0,0.0,0.6026911037519311,-0.1435546875,8.572565185409562
1707028614.6505868,0.0,0.0,0.0,0.0,0.02530003035575276,0.0023968449810713144,-0.06578007892495719,-2.5169921875,1.107763671875,9.673193359375,0.0,0.0,0.0,0.0,0.0,0.0,0.0,0.0,0.0,0.0,0.0,0.0,0.0,0.0,0.0,0.0,0.0,0.0,0.0,0.0,0.0,0.0,0.0,0.0,0.0,0.0,0.0,0.07371945681151093,1.107763671875,9.995023005550316
1707028614.6516578,0.0,0.0,0.0,0.0,0.0,-0.004793689962142629,-0.12223909403463702,-1.6030273437500002,1.5324462890625,9.151611328125,0.0,0.0,0.0,0.0,0.0,0.0,0.0,0.0,0.0,0.0,0.0,0.0,0.0,0.0,0.0,0.0,0.0,0.0,0.0,0.0,0.0,0.0,0.0,0.0,0.0,0.0,0.0,0.8214470354671537,1.5324462890625,9.254561650007968
1707028614.6914258,0.0,0.0,0.0,0.0,-0.0005326322180158476,0.05432848623761646,-0.07057376888709982,-2.9608154296875,1.079052734375,10.094287109375,0.0,0.0,0.0,0.0,0.0,0.0,0.0,0.0,0.0,0.0,0.0,0.0,0.0,0.0,0.0,0.0,0.0,0.0,0.0,0.0,0.0,0.0,0.0,0.0,0.0,0.0,0.0,-0.2459238302213409,1.079052734375,10.51668111739151
1707028614.6924515,0.0,0.0,0.0,0.0,-0.04234426133225989,0.03888215191515688,-0.08974852873567032,-3.6833740234375,0.4318603515625,10.108642578125,0.0,0.0,0.0,0.0,0.0,0.0,0.0,0.0,0.0,0.0,0.0,0.0,0.0,0.0,0.0,0.0,0.0,0.0,0.0,0.0,0.0,0.0,0.0,0.0,0.0,0.0,0.0,-0.9401194199069098,0.4318603515625,10.717652468947184
1707028614.693747,0.0,0.0,0.0,0.0,-0.05166532514753722,-0.01384843766841204,-0.055926382891664,-3.2826171875,-1.3577880859375,9.351391601562499,0.0,0.0,0.0,0.0,0.0,0.0,0.0,0.0,0.0,0.0,0.0,0.0,0.0,0.0,0.0,0.0,0.0,0.0,0.0,0.0,0.0,0.0,0.0,0.0,0.0,0.0,0.0,-0.7491210327781865,-1.3577880859375,9.882455067628358
1707028614.7117813,0.0,0.0,0.0,0.0,-0.02583266257376861,-0.024767398137736915,-0.04420847409531535,-2.6019287109375,-1.7585449218750002,9.051123046875,0.0,0.0,0.0,0.0,0.0,0.0,0.0,0.0,0.0,0.0,0.0,0.0,0.0,0.0,0.0,0.0,0.0,0.0,0.0,0.0,0.0,0.0,0.0,0.0,0.0,0.0,0.0,-0.16940420845747717,-1.7585449218750002,9.41616501770384
1707028614.7129157,0.0,0.0,0.0,0.0,0.0007989483270237714,0.027430559227816155,-0.027430559227816155,-3.4800048828125,-1.2022705078125,9.8681884765625,0.0,0.0,0.0,0.0,0.0,0.0,0.0,0.0,0.0,0.0,0.0,0.0,0.0,0.0,0.0,0.0,0.0,0.0,0.0,0.0,0.0,0.0,0.0,0.0,0.0,0.0,0.0,-0.8059522276005087,-1.2022705078125,10.432737838179657
1707028614.7139783,0.0,0.0,0.0,0.0,0.0111852765783328,-0.0111852765783328,-0.016245282649483352,-3.878369140625,-0.9486572265625,9.898095703125,0.0,0.0,0.0,0.0,0.0,0.0,0.0,0.0,0.0,0.0,0.0,0.0,0.0,0.0,0.0,0.0,0.0,0.0,0.0,0.0,0.0,0.0,0.0,0.0,0.0,0.0,0.0,-1.1829842862750737,-0.9486572265625,10.564780826765888
1707028614.7479675,0.0,0.0,0.0,0.0,0.015180018213451656,-0.06098638896281455,0.004793689962142629,-3.0864257812500004,-0.5359375000000001,9.448291015625,0.0,0.0,0.0,0.0,0.0,0.0,0.0,0.0,0.0,0.0,0.0,0.0,0.0,0.0,0.0,0.0,0.0,0.0,0.0,0.0,0.0,0.0,0.0,0.0,0.0,0.0,0.0,-0.5345295316764478,-0.5359375000000001,9.92524586087773
1707028614.7490304,0.0,0.0,0.0,0.0,0.017576863194522972,-0.05566006678265608,0.04580637074936289,-3.002685546875,-0.155517578125,9.76650390625,0.0,0.0,0.0,0.0,0.0,0.0,0.0,0.0,0.0,0.0,0.0,0.0,0.0,0.0,0.0,0.0,0.0,0.0,0.0,0.0,0.0,0.0,0.0,0.0,0.0,0.0,0.0,-0.3712448035657574,-0.155517578125,10.210920445289638
1707028614.7500832,0.0,0.0,0.0,0.0,0.006391586616190171,-0.0671116594699968,0.04420847409531535,-2.6521728515625,-0.5646484375,9.8992919921875,0.0,0.0,0.0,0.0,0.0,0.0,0.0,0.0,0.0,0.0,0.0,0.0,0.0,0.0,0.0,0.0,0.0,0.0,0.0,0.0,0.0,0.0,0.0,0.0,0.0,0.0,0.0,0.001697578991624038,-0.5646484375,10.248414506614099
1707028614.7690303,0.0,0.0,0.0,0.0,0.02024002428460221,-0.09400958647979712,0.05006742849348968,-1.8087890625,-0.6196777343750001,9.9686767578125,0.0,0.0,0.0,0.0,0.0,0.0,0.0,0.0,0.0,0.0,0.0,0.0,0.0,0.0,0.0,0.0,0.0,0.0,0.0,0.0,0.0,0.0,0.0,0.0,0.0,0.0,0.0,0.8342815659801903,-0.6196777343750001,10.097039588069189
1707028614.770996,0.0,0.0,0.0,0.0,0.02157160482964183,-0.08175904546543261,0.014913702104443732,-0.892431640625,-0.0418701171875,9.549975585937501,0.0,0.0,0.0,0.0,0.0,0.0,0.0,0.0,0.0,0.0,0.0,0.0,0.0,0.0,0.0,0.0,0.0,0.0,0.0,0.0,0.0,0.0,0.0,0.0,0.0,0.0,0.0,1.6109609684560604,-0.0418701171875,9.455330384672028
1707028614.772084,0.0,0.0,0.0,0.0,0.01731054708551505,-0.03542004249805387,-0.0015978966540475428,-0.720166015625,0.2966796875,9.6241455078125,0.0,0.0,0.0,0.0,0.0,0.0,0.0,0.0,0.0,0.0,0.0,0.0,0.0,0.0,0.0,0.0,0.0,0.0,0.0,0.0,0.0,0.0,0.0,0.0,0.0,0.0,0.0,1.7965570002357374,0.2966796875,9.482362511026073
1707028614.8154097,0.0,0.0,0.0,0.0,0.018109495412538815,-0.005060006071150552,0.007456851052221865,-0.308642578125,0.1435546875,9.215014648437501,0.0,0.0,0.0,0.0,0.0,0.0,0.0,0.0,0.0,0.0,0.0,0.0,0.0,0.0,0.0,0.0,0.0,0.0,0.0,0.0,0.0,0.0,0.0,0.0,0.0,0.0,0.0,2.0880999669544122,0.1435546875,8.980623237835687
1707028614.8184288,0.0,0.0,0.0,0.0,0.023435817592697288,0.0660463950339651,0.02716424311880823,-0.9749755859375,0.35529785156250004,9.5786865234375,0.0,0.0,0.0,0.0,0.0,0.0,0.0,0.0,0.0,0.0,0.0,0.0,0.0,0.0,0.0,0.0,0.0,0.0,0.0,0.0,0.0,0.0,0.0,0.0,0.0,0.0,0.0,1.5386671628540705,0.35529785156250004,9.504436662391516
1707028614.8202589,0.0,0.0,0.0,0.0,0.017044230976507122,0.10972223691126462,0.0346210941710301,-1.990625,0.4198974609375,9.786840820312499,0.0,0.0,0.0,0.0,0.0,0.0,0.0,0.0,0.0,0.0,0.0,0.0,0.0,0.0,0.0,0.0,0.0,0.0,0.0,0.0,0.0,0.0,0.0,0.0,0.0,0.0,0.0,0.6115616911141024,0.4198974609375,9.968492033939821
1707028614.829291,0.0,0.0,0.0,0.0,0.008788431597261486,0.10972223691126462,0.02370213370170522,-2.9321044921875004,0.3744384765625,10.185205078125,0.0,0.0,0.0,0.0,0.0,0.0,0.0,0.0,0.0,0.0,0.0,0.0,0.0,0.0,0.0,0.0,0.0,0.0,0.0,0.0,0.0,0.0,0.0,0.0,0.0,0.0,0.0,-0.19464911090594095,0.3744384765625,10.597063317740105
1707028614.8303595,0.0,0.0,0.0,0.0,0.0037284255261109327,0.07217166554114736,0.00772316716122979,-3.6235595703125,0.696240234375,10.24501953125,0.0,0.0,0.0,0.0,0.0,0.0,0.0,0.0,0.0,0.0,0.0,0.0,0.0,0.0,0.0,0.0,0.0,0.0,0.0,0.0,0.0,0.0,0.0,0.0,0.0,0.0,0.0,-0.8470305514405978,0.696240234375,10.833888886278256
1707028614.8313932,0.0,0.0,0.0,0.0,-0.014913702104443732,0.0167779148674992,-0.011984224905356573,-2.983544921875,0.093310546875,9.236547851562499,0.0,0.0,0.0,0.0,0.0,0.0,0.0,0.0,0.0,0.0,0.0,0.0,0.0,0.0,0.0,0.0,0.0,0.0,0.0,0.0,0.0,0.0,0.0,0.0,0.0,0.0,0.0,-0.4899884194290487,0.093310546875,9.694084168392358
1707028614.8682396,0.0,0.0,0.0,0.0,-0.010918960469324876,0.02503371424674484,-0.010386328251309028,-2.9584228515625,0.28950195312500004,9.24013671875,0.0,0.0,0.0,0.0,0.0,0.0,0.0,0.0,0.0,0.0,0.0,0.0,0.0,0.0,0.0,0.0,0.0,0.0,0.0,0.0,0.0,0.0,0.0,0.0,0.0,0.0,0.0,-0.46479390307669766,0.28950195312500004,9.691045298496025
1707028614.8693013,0.0,0.0,0.0,0.0,-0.014913702104443732,0.04420847409531535,-0.01251685712337242,-3.514697265625,0.3170166015625,9.7437744140625,0.0,0.0,0.0,0.0,0.0,0.0,0.0,0.0,0.0,0.0,0.0,0.0,0.0,0.0,0.0,0.0,0.0,0.0,0.0,0.0,0.0,0.0,0.0,0.0,0.0,0.0,0.0,-0.8716781381185585,0.3170166015625,10.32155094569886
1707028614.870372,0.0,0.0,0.0,0.0,-0.0223705531566656,0.015180018213451656,-0.011984224905356573,-3.5828857421875004,-0.284716796875,9.8251220703125,0.0,0.0,0.0,0.0,0.0,0.0,0.0,0.0,0.0,0.0,0.0,0.0,0.0,0.0,0.0,0.0,0.0,0.0,0.0,0.0,0.0,0.0,0.0,0.0,0.0,0.0,0.0,-0.9164759198377821,-0.284716796875,10.417781233375452
1707028614.8893769,0.0,0.0,0.0,0.0,-0.021038972611625986,-0.007456851052221865,-0.018109495412538815,-3.3615722656250004,-0.2572021484375,9.615771484375,0.0,0.0,0.0,0.0,0.0,0.0,0.0,0.0,0.0,0.0,0.0,0.0,0.0,0.0,0.0,0.0,0.0,0.0,0.0,0.0,0.0,0.0,0.0,0.0,0.0,0.0,0.0,-0.7569222414324122,-0.2572021484375,10.158262551104077
1707028614.8904407,0.0,0.0,0.0,0.0,-0.019174759848570515,-0.0167779148674992,-0.013049489341388264,-3.1737548828125,-0.3385498046875,9.49375,0.0,0.0,0.0,0.0,0.0,0.0,0.0,0.0,0.0,0.0,0.0,0.0,0.0,0.0,0.0,0.0,0.0,0.0,0.0,0.0,0.0,0.0,0.0,0.0,0.0,0.0,0.0,-0.6071083939418176,-0.3385498046875,9.99176803757381
1707028614.891506,0.0,0.0,0.0,0.0,-0.01970739206658636,-0.014913702104443732,-0.007989483270237713,-2.9739746093750004,-0.5646484375,9.4829833984375,0.0,0.0,0.0,0.0,0.0,0.0,0.0,0.0,0.0,0.0,0.0,0.0,0.0,0.0,0.0,0.0,0.0,0.0,0.0,0.0,0.0,0.0,0.0,0.0,0.0,0.0,0.0,-0.41693040132467907,-0.5646484375,9.929635851968575
1707028614.9279828,0.0,0.0,0.0,0.0,-0.0111852765783328,-0.014114753777419962,0.003994741635118856,-2.892626953125,-0.433056640625,9.66123046875,0.0,0.0,0.0,0.0,0.0,0.0,0.0,0.0,0.0,0.0,0.0,0.0,0.0,0.0,0.0,0.0,0.0,0.0,0.0,0.0,0.0,0.0,0.0,0.0,0.0,0.0,0.0,-0.292200595530395,-0.433056640625,10.080738250357474
1707028614.9290783,0.0,0.0,0.0,0.0,-0.011451592687340723,-0.017576863194522972,0.011717908796348644,-2.916552734375,-0.6663330078125,9.742578125,0.0,0.0,0.0,0.0,0.0,0.0,0.0,0.0,0.0,0.0,0.0,0.0,0.0,0.0,0.0,0.0,0.0,0.0,0.0,0.0,0.0,0.0,0.0,0.0,0.0,0.0,0.0,-0.29424543358898747,-0.6663330078125,10.165506775312819
1707028614.950035,0.0,0.0,0.0,0.0,-0.005858954398174322,-0.03195793308095086,0.018375811521546746,-2.56484375,-0.9558349609375002,9.5164794921875,0.0,0.0,0.0,0.0,0.0,0.0,0.0,0.0,0.0,0.0,0.0,0.0,0.0,0.0,0.0,0.0,0.0,0.0,0.0,0.0,0.0,0.0,0.0,0.0,0.0,0.0,0.0,-0.013080777321148762,-0.9558349609375002,9.856045570126184
1707028614.9513962,0.0,0.0,0.0,0.0,0.00692421883420602,-0.021305288720633905,0.012250541014364496,-2.6641357421875,-0.6136962890625001,9.7246337890625,0.0,0.0,0.0,0.0,0.0,0.0,0.0,0.0,0.0,0.0,0.0,0.0,0.0,0.0,0.0,0.0,0.0,0.0,0.0,0.0,0.0,0.0,0.0,0.0,0.0,0.0,0.0,-0.05508476678967833,-0.6136962890625001,10.08281147560762
1707028614.9524348,0.0,0.0,0.0,0.0,0.01251685712337242,-0.02716424311880823,-0.0010652644360316951,-2.42607421875,-0.342138671875,9.6947265625,0.0,0.0,0.0,0.0,0.0,0.0,0.0,0.0,0.0,0.0,0.0,0.0,0.0,0.0,0.0,0.0,0.0,0.0,0.0,0.0,0.0,0.0,0.0,0.0,0.0,0.0,0.0,0.16711230673557464,-0.342138671875,9.992278654714548
1707028614.9881537,0.0,0.0,0.0,0.0,0.011984224905356573,-0.024767398137736915,-0.011984224905356573,-2.2597900390625,-0.2811279296875,9.8035888671875,0.0,0.0,0.0,0.0,0.0,0.0,0.0,0.0,0.0,0.0,0.0,0.0,0.0,0.0,0.0,0.0,0.0,0.0,0.0,0.0,0.0,0.0,0.0,0.0,0.0,0.0,0.0,0.35591445745073846,-0.2811279296875,10.054368731873042
1707028614.9892416,0.0,0.0,0.0,0.0,0.015446334322459582,-0.02503371424674484,-0.01384843766841204,-1.988232421875,-0.2428466796875,9.61337890625,0.0,0.0,0.0,0.0,0.0,0.0,0.0,0.0,0.0,0.0,0.0,0.0,0.0,0.0,0.0,0.0,0.0,0.0,0.0,0.0,0.0,0.0,0.0,0.0,0.0,0.0,0.0,0.568954942269255,-0.2428466796875,9.800327159447013
1707028614.9903047,0.0,0.0,0.0,0.0,0.013049489341388264,-0.005858954398174322,-0.012250541014364496,-1.964306640625,-0.2452392578125,9.5571533203125,0.0,0.0,0.0,0.0,0.0,0.0,0.0,0.0,0.0,0.0,0.0,0.0,0.0,0.0,0.0,0.0,0.0,0.0,0.0,0.0,0.0,0.0,0.0,0.0,0.0,0.0,0.0,0.5775051051155811,-0.2452392578125,9.739823818731484
1707028615.009731,0.0,0.0,0.0,0.0,0.01944107595757844,0.007190534943213943,0.007989483270237713,-2.1963867187500004,-0.3265869140625,9.563134765625,0.0,0.0,0.0,0.0,0.0,0.0,0.0,0.0,0.0,0.0,0.0,0.0,0.0,0.0,0.0,0.0,0.0,0.0,0.0,0.0,0.0,0.0,0.0,0.0,0.0,0.0,0.0,0.3548899089924413,-0.3265869140625,9.805698053494318
1707028615.010822,0.0,0.0,0.0,0.0,0.020772656502618055,0.021837920938649752,0.0037284255261109327,-2.5074218750000004,-0.2213134765625,9.715063476562499,0.0,0.0,0.0,0.0,0.0,0.0,0.0,0.0,0.0,0.0,0.0,0.0,0.0,0.0,0.0,0.0,0.0,0.0,0.0,0.0,0.0,0.0,0.0,0.0,0.0,0.0,0.0,0.09380554450147383,-0.2213134765625,10.032986760316588
1707028615.0119407,0.0,0.0,0.0,0.0,0.024767398137736915,0.01944107595757844,0.001331580545039619,-2.8172607421875,-0.002392578125,9.864599609375,0.0,0.0,0.0,0.0,0.0,0.0,0.0,0.0,0.0,0.0,0.0,0.0,0.0,0.0,0.0,0.0,0.0,0.0,0.0,0.0,0.0,0.0,0.0,0.0,0.0,0.0,0.0,-0.16674288976738083,-0.002392578125,10.257654719840414
1707028615.0485528,0.0,0.0,0.0,0.0,0.02050634039361013,0.0055926382891664,-0.007989483270237713,-2.87109375,0.4677490234375,10.0332763671875,0.0,0.0,0.0,0.0,0.0,0.0,0.0,0.0,0.0,0.0,0.0,0.0,0.0,0.0,0.0,0.0,0.0,0.0,0.0,0.0,0.0,0.0,0.0,0.0,0.0,0.0,0.0,-0.17506110384934637,0.4677490234375,10.434518081424331
1707028615.0496216,0.0,0.0,0.0,0.0,0.013049489341388264,-0.021305288720633905,-0.0031957933080950856,-2.4464111328125,0.7596435546875,9.663623046875,0.0,0.0,0.0,0.0,0.0,0.0,0.0,0.0,0.0,0.0,0.0,0.0,0.0,0.0,0.0,0.0,0.0,0.0,0.0,0.0,0.0,0.0,0.0,0.0,0.0,0.0,0.0,0.1394148507090045,0.7596435546875,9.967502260960083
1707028615.050677,0.0,0.0,0.0,0.0,-0.005326322180158476,-0.016511598758491276,0.0021305288720633903,-2.0061767578125,0.409130859375,9.3657470703125,0.0,0.0,0.0,0.0,0.0,0.0,0.0,0.0,0.0,0.0,0.0,0.0,0.0,0.0,0.0,0.0,0.0,0.0,0.0,0.0,0.0,0.0,0.0,0.0,0.0,0.0,0.0,0.4874987520474354,0.409130859375,9.565788432502908
1707028615.073853,0.0,0.0,0.0,0.0,-0.005858954398174322,0.010918960469324876,0.024767398137736915,-2.16767578125,0.2009765625,9.616967773437501,0.0,0.0,0.0,0.0,0.0,0.0,0.0,0.0,0.0,0.0,0.0,0.0,0.0,0.0,0.0,0.0,0.0,0.0,0.0,0.0,0.0,0.0,0.0,0.0,0.0,0.0,0.0,0.39656152981166404,0.2009765625,9.850260219965088
1707028615.0749836,0.0,0.0,0.0,0.0,-0.009853696033293181,0.021038972611625986,0.017576863194522972,-2.3913818359375,0.04306640625,9.7988037109375,0.0,0.0,0.0,0.0,0.0,0.0,0.0,0.0,0.0,0.0,0.0,0.0,0.0,0.0,0.0,0.0,0.0,0.0,0.0,0.0,0.0,0.0,0.0,0.0,0.0,0.0,0.0,0.22757200194926863,0.04306640625,10.083822302810733
1707028615.0760622,0.0,0.0,0.0,0.0,-0.009321063815277331,0.017044230976507122,0.0111852765783328,-2.4966552734375,-0.0681884765625,9.7294189453125,0.0,0.0,0.0,0.0,0.0,0.0,0.0,0.0,0.0,0.0,0.0,0.0,0.0,0.0,0.0,0.0,0.0,0.0,0.0,0.0,0.0,0.0,0.0,0.0,0.0,0.0,0.0,0.10792223762581576,-0.0681884765625,10.044064583544598
1707028615.109375,0.0,0.0,0.0,0.0,-0.010918960469324876,0.016245282649483352,-0.0031957933080950856,-2.4990478515625,0.2069580078125,9.6755859375,0.0,0.0,0.0,0.0,0.0,0.0,0.0,0.0,0.0,0.0,0.0,0.0,0.0,0.0,0.0,0.0,0.0,0.0,0.0,0.0,0.0,0.0,0.0,0.0,0.0,0.0,0.0,0.09167128601021268,0.2069580078125,9.99268731491525
1707028615.1104846,0.0,0.0,0.0,0.0,-0.015180018213451656,0.016511598758491276,-0.006391586616190171,-2.45478515625,0.1232177734375,9.5380126953125,0.0,0.0,0.0,0.0,0.0,0.0,0.0,0.0,0.0,0.0,0.0,0.0,0.0,0.0,0.0,0.0,0.0,0.0,0.0,0.0,0.0,0.0,0.0,0.0,0.0,0.0,0.0,0.09879983202372866,0.1232177734375,9.848344781356907
1707028615.111658,0.0,0.0,0.0,0.0,-0.01970739206658636,0.028762139772855768,-0.0021305288720633903,-2.6354248046875,-0.1064697265625,9.61337890625,0.0,0.0,0.0,0.0,0.0,0.0,0.0,0.0,0.0,0.0,0.0,0.0,0.0,0.0,0.0,0.0,0.0,0.0,0.0,0.0,0.0,0.0,0.0,0.0,0.0,0.0,0.0,-0.056162423146995266,-0.1064697265625,9.967916717073876
1707028615.1319475,0.0,0.0,0.0,0.0,-0.019174759848570515,0.03195793308095086,0.0111852765783328,-2.964404296875,-0.42468261718750006,9.7138671875,0.0,0.0,0.0,0.0,0.0,0.0,0.0,0.0,0.0,0.0,0.0,0.0,0.0,0.0,0.0,0.0,0.0,0.0,0.0,0.0,0.0,0.0,0.0,0.0,0.0,0.0,0.0,-0.34789948904128787,-0.42468261718750006,10.15016623101538
1707028615.1330795,0.0,0.0,0.0,0.0,-0.018642127630554665,0.02263686926567352,0.005858954398174322,-3.09599609375,-0.7548583984375,9.638500976562499,0.0,0.0,0.0,0.0,0.0,0.0,0.0,0.0,0.0,0.0,0.0,0.0,0.0,0.0,0.0,0.0,0.0,0.0,0.0,0.0,0.0,0.0,0.0,0.0,0.0,0.0,0.0,-0.4945188094225821,-0.7548583984375,10.111446189088818
1707028615.1341667,0.0,0.0,0.0,0.0,-0.008255799379245636,0.011984224905356573,0.003994741635118856,-3.2192138671875004,-0.8697021484375,9.6337158203125,0.0,0.0,0.0,0.0,0.0,0.0,0.0,0.0,0.0,0.0,0.0,0.0,0.0,0.0,0.0,0.0,0.0,0.0,0.0,0.0,0.0,0.0,0.0,0.0,0.0,0.0,0.0,-0.6147728701774455,-0.8697021484375,10.138731318430596
1707028615.1686175,0.0,0.0,0.0,0.0,0.0005326322180158476,0.0,-0.0010652644360316951,-3.256298828125,-0.701025390625,9.725830078125,0.0,0.0,0.0,0.0,0.0,0.0,0.0,0.0,0.0,0.0,0.0,0.0,0.0,0.0,0.0,0.0,0.0,0.0,0.0,0.0,0.0,0.0,0.0,0.0,0.0,0.0,0.0,-0.6267400465002462,-0.701025390625,10.23730675913944
1707028615.1696858,0.0,0.0,0.0,0.0,0.006657902725198095,-0.015712650431467506,-0.009054747706269408,-3.00029296875,-0.6256591796875001,9.572705078125,0.0,0.0,0.0,0.0,0.0,0.0,0.0,0.0,0.0,0.0,0.0,0.0,0.0,0.0,0.0,0.0,0.0,0.0,0.0,0.0,0.0,0.0,0.0,0.0,0.0,0.0,0.0,-0.41911776771496134,-0.6256591796875001,10.023112326412216
1707028615.170755,0.0,0.0,0.0,0.0,0.01384843766841204,-0.014913702104443732,-0.009321063815277331,-2.9129638671875,-0.275146484375,9.646875,0.0,0.0,0.0,0.0,0.0,0.0,0.0,0.0,0.0,0.0,0.0,0.0,0.0,0.0,0.0,0.0,0.0,0.0,0.0,0.0,0.0,0.0,0.0,0.0,0.0,0.0,0.0,-0.3155611683651429,-0.275146484375,10.072138646096219
1707028615.2098992,0.0,0.0,0.0,0.0,0.012250541014364496,-0.01731054708551505,-0.009054747706269408,-2.8064941406250004,-0.155517578125,9.67080078125,0.0,0.0,0.0,0.0,0.0,0.0,0.0,0.0,0.0,0.0,0.0,0.0,0.0,0.0,0.0,0.0,0.0,0.0,0.0,0.0,0.0,0.0,0.0,0.0,0.0,0.0,0.0,-0.20652745916997972,-0.155517578125,10.067678159367077
1707028615.211154,0.0,0.0,0.0,0.0,0.010652644360316953,-0.02370213370170522,-0.007989483270237713,-2.61748046875,-0.2548095703125,9.6504638671875,0.0,0.0,0.0,0.0,0.0,0.0,0.0,0.0,0.0,0.0,0.0,0.0,0.0,0.0,0.0,0.0,0.0,0.0,0.0,0.0,0.0,0.0,0.0,0.0,0.0,0.0,0.0,-0.029227050193803894,-0.2548095703125,9.999090090389036
1707028615.212186,0.0,0.0,0.0,0.0,0.0111852765783328,-0.021038972611625986,-0.009321063815277331,-2.4607666015625,-0.23447265625,9.63251953125,0.0,0.0,0.0,0.0,0.0,0.0,0.0,0.0,0.0,0.0,0.0,0.0,0.0,0.0,0.0,0.0,0.0,0.0,0.0,0.0,0.0,0.0,0.0,0.0,0.0,0.0,0.0,0.11749481950143803,-0.23447265625,9.941176980351397
1707028615.2290328,0.0,0.0,0.0,0.0,0.016245282649483352,-0.01597896654047543,-0.002929477199087161,-2.4320556640625,-0.19140625,9.693530273437501,0.0,0.0,0.0,0.0,0.0,0.0,0.0,0.0,0.0,0.0,0.0,0.0,0.0,0.0,0.0,0.0,0.0,0.0,0.0,0.0,0.0,0.0,0.0,0.0,0.0,0.0,0.0,0.16102510454572627,-0.19140625,9.992672056604972
1707028615.230101,0.0,0.0,0.0,0.0,0.015180018213451656,-0.01597896654047543,-0.00692421883420602,-2.3172119140625,0.033496093750000004,9.663623046875,0.0,0.0,0.0,0.0,0.0,0.0,0.0,0.0,0.0,0.0,0.0,0.0,0.0,0.0,0.0,0.0,0.0,0.0,0.0,0.0,0.0,0.0,0.0,0.0,0.0,0.0,0.0,0.2642072267994946,0.033496093750000004,9.934046304908879
1707028615.2311695,0.0,0.0,0.0,0.0,0.013049489341388264,-0.012783173232380343,0.0005326322180158476,-2.1724609375000004,0.1926025390625,9.664819335937501,0.0,0.0,0.0,0.0,0.0,0.0,0.0,0.0,0.0,0.0,0.0,0.0,0.0,0.0,0.0,0.0,0.0,0.0,0.0,0.0,0.0,0.0,0.0,0.0,0.0,0.0,0.0,0.4043306847902395,0.1926025390625,9.8977187280005
1707028615.2328115,0.0,0.0,0.0,0.0,0.010652644360316953,-0.0023968449810713144,0.011984224905356573,-2.277734375,0.179443359375,9.736596679687501,0.0,0.0,0.0,0.0,0.0,0.0,0.0,0.0,0.0,0.0,0.0,0.0,0.0,0.0,0.0,0.0,0.0,0.0,0.0,0.0,0.0,0.0,0.0,0.0,0.0,0.0,0.0,0.3212346502264354,0.179443359375,9.994308234462864
1707028615.2688646,0.0,0.0,0.0,0.0,0.005060006071150552,0.0010652644360316951,0.0111852765783328,-2.294482421875,0.1949951171875,9.7078857421875,0.0,0.0,0.0,0.0,0.0,0.0,0.0,0.0,0.0,0.0,0.0,0.0,0.0,0.0,0.0,0.0,0.0,0.0,0.0,0.0,0.0,0.0,0.0,0.0,0.0,0.0,0.0,0.29762320383295604,0.1949951171875,9.970913478523466
1707028615.2700024,0.0,0.0,0.0,0.0,0.001331580545039619,0.005326322180158476,0.015712650431467506,-2.33515625,0.2009765625,9.736596679687501,0.0,0.0,0.0,0.0,0.0,0.0,0.0,0.0,0.0,0.0,0.0,0.0,0.0,0.0,0.0,0.0,0.0,0.0,0.0,0.0,0.0,0.0,0.0,0.0,0.0,0.0,0.0,0.26577137196399603,0.2009765625,10.009177548263398
1707028615.2710288,0.0,0.0,0.0,0.0,-0.0042610577441267805,0.007989483270237713,0.006657902725198095,-2.3985595703125,0.131591796875,9.646875,0.0,0.0,0.0,0.0,0.0,0.0,0.0,0.0,0.0,0.0,0.0,0.0,0.0,0.0,0.0,0.0,0.0,0.0,0.0,0.0,0.0,0.0,0.0,0.0,0.0,0.0,0.0,0.1812973660692152,0.131591796875,9.938934376633092
1707028615.2883086,0.0,0.0,0.0,0.0,-0.005858954398174322,0.01251685712337242,0.0007989483270237714,-2.500244140625,0.1662841796875,9.7054931640625,0.0,0.0,0.0,0.0,0.0,0.0,0.0,0.0,0.0,0.0,0.0,0.0,0.0,0.0,0.0,0.0,0.0,0.0,0.0,0.0,0.0,0.0,0.0,0.0,0.0,0.0,0.0,0.09826023531752348,0.1662841796875,10.021884216381114
1707028615.2893867,0.0,0.0,0.0,0.0,-0.009853696033293181,0.009587379924285256,0.0007989483270237714,-2.4631591796875,0.0011962890625,9.691137695312499,0.0,0.0,0.0,0.0,0.0,0.0,0.0,0.0,0.0,0.0,0.0,0.0,0.0,0.0,0.0,0.0,0.0,0.0,0.0,0.0,0.0,0.0,0.0,0.0,0.0,0.0,0.0,0.13036294074521537,0.0011962890625,9.998415298319324
1707028615.2904775,0.0,0.0,0.0,0.0,-0.013582121559404116,0.011717908796348644,0.002929477199087161,-2.4607666015625,-0.2392578125,9.682763671875,0.0,0.0,0.0,0.0,0.0,0.0,0.0,0.0,0.0,0.0,0.0,0.0,0.0,0.0,0.0,0.0,0.0,0.0,0.0,0.0,0.0,0.0,0.0,0.0,0.0,0.0,0.0,0.13050546907690608,-0.2392578125,9.989707348831029
1707028615.3308287,0.0,0.0,0.0,0.0,-0.009587379924285256,0.01251685712337242,0.005858954398174322,-2.4954589843750004,-0.25600585937500003,9.6121826171875,0.0,0.0,0.0,0.0,0.0,0.0,0.0,0.0,0.0,0.0,0.0,0.0,0.0,0.0,0.0,0.0,0.0,0.0,0.0,0.0,0.0,0.0,0.0,0.0,0.0,0.0,0.0,0.07871954024685746,-0.25600585937500003,9.930517279721272
1707028615.332662,0.0,0.0,0.0,0.0,-0.007456851052221865,0.0167779148674992,0.006391586616190171,-2.6282470703125,-0.31103515625,9.6576416015625,0.0,0.0,0.0,0.0,0.0,0.0,0.0,0.0,0.0,0.0,0.0,0.0,0.0,0.0,0.0,0.0,0.0,0.0,0.0,0.0,0.0,0.0,0.0,0.0,0.0,0.0,0.0,-0.03776775064294435,-0.31103515625,10.008810996509439
1707028615.333738,0.0,0.0,0.0,0.0,-0.0042610577441267805,0.014381069886427884,0.0010652644360316951,-2.69404296875,-0.3265869140625,9.6528564453125,0.0,0.0,0.0,0.0,0.0,0.0,0.0,0.0,0.0,0.0,0.0,0.0,0.0,0.0,0.0,0.0,0.0,0.0,0.0,0.0,0.0,0.0,0.0,0.0,0.0,0.0,0.0,-0.102558533135368,-0.3265869140625,10.021226812050683
1707028615.3496192,0.0,0.0,0.0,0.0,-0.002663161090079238,0.011717908796348644,-0.006657902725198095,-2.7478759765625,-0.16867675781250002,9.6959228515625,0.0,0.0,0.0,0.0,0.0,0.0,0.0,0.0,0.0,0.0,0.0,0.0,0.0,0.0,0.0,0.0,0.0,0.0,0.0,0.0,0.0,0.0,0.0,0.0,0.0,0.0,0.0,-0.14340337115600388,-0.16867675781250002,10.076764252435515
1707028615.3506875,0.0,0.0,0.0,0.0,-0.0018642127630554663,0.009853696033293181,-0.0023968449810713144,-2.78017578125,-0.19140625,9.697119140625,0.0,0.0,0.0,0.0,0.0,0.0,0.0,0.0,0.0,0.0,0.0,0.0,0.0,0.0,0.0,0.0,0.0,0.0,0.0,0.0,0.0,0.0,0.0,0.0,0.0,0.0,0.0,-0.17429168780778248,-0.19140625,10.086283726412118
1707028615.351754,0.0,0.0,0.0,0.0,-0.00346210941710301,0.0042610577441267805,-0.004793689962142629,-2.7048095703125004,-0.28352050781250004,9.53681640625,0.0,0.0,0.0,0.0,0.0,0.0,0.0,0.0,0.0,0.0,0.0,0.0,0.0,0.0,0.0,0.0,0.0,0.0,0.0,0.0,0.0,0.0,0.0,0.0,0.0,0.0,0.0,-0.1430063027814903,-0.28352050781250004,9.911932766899604
1707028615.3879955,0.0,0.0,0.0,0.0,-0.0010652644360316951,0.008255799379245636,-0.0002663161090079238,-2.7813720703125,-0.35529785156250004,9.6050048828125,0.0,0.0,0.0,0.0,0.0,0.0,0.0,0.0,0.0,0.0,0.0,0.0,0.0,0.0,0.0,0.0,0.0,0.0,0.0,0.0,0.0,0.0,0.0,0.0,0.0,0.0,0.0,-0.19930003032660837,-0.35529785156250004,9.997621161570295
1707028615.389062,0.0,0.0,0.0,0.0,0.001331580545039619,0.007190534943213943,0.0015978966540475428,-2.8627197265625,-0.5490966796875001,9.5607421875,0.0,0.0,0.0,0.0,0.0,0.0,0.0,0.0,0.0,0.0,0.0,0.0,0.0,0.0,0.0,0.0,0.0,0.0,0.0,0.0,0.0,0.0,0.0,0.0,0.0,0.0,0.0,-0.2893347705863105,-0.5490966796875001,9.975933079127092
1707028615.3901243,0.0,0.0,0.0,0.0,0.007456851052221865,0.0055926382891664,-0.002663161090079238,-2.9871337890625,-0.399560546875,9.78564453125,0.0,0.0,0.0,0.0,0.0,0.0,0.0,0.0,0.0,0.0,0.0,0.0,0.0,0.0,0.0,0.0,0.0,0.0,0.0,0.0,0.0,0.0,0.0,0.0,0.0,0.0,0.0,-0.35126706110283434,-0.399560546875,10.225381098889473
1707028615.4084547,0.0,0.0,0.0,0.0,0.012250541014364496,-0.01251685712337242,-0.002929477199087161,-2.8435791015625,-0.06938476562500001,9.646875,0.0,0.0,0.0,0.0,0.0,0.0,0.0,0.0,0.0,0.0,0.0,0.0,0.0,0.0,0.0,0.0,0.0,0.0,0.0,0.0,0.0,0.0,0.0,0.0,0.0,0.0,0.0,-0.24854304046469444,-0.06938476562500001,10.054171558587239
1707028615.4095294,0.0,0.0,0.0,0.0,0.00692421883420602,-0.016245282649483352,-0.00692421883420602,-2.610302734375,-0.0705810546875,9.543994140625,0.0,0.0,0.0,0.0,0.0,0.0,0.0,0.0,0.0,0.0,0.0,0.0,0.0,0.0,0.0,0.0,0.0,0.0,0.0,0.0,0.0,0.0,0.0,0.0,0.0,0.0,0.0,-0.04986432641615757,-0.0705810546875,9.894393264385693
1707028615.4106023,0.0,0.0,0.0,0.0,0.007989483270237713,-0.010918960469324876,-0.0023968449810713144,-2.6114990234375,0.0059814453125,9.5798828125,0.0,0.0,0.0,0.0,0.0,0.0,0.0,0.0,0.0,0.0,0.0,0.0,0.0,0.0,0.0,0.0,0.0,0.0,0.0,0.0,0.0,0.0,0.0,0.0,0.0,0.0,0.0,-0.041726490254624604,0.0059814453125,9.929367590670562
1707028615.4537098,0.0,0.0,0.0,0.0,0.003994741635118856,-0.006391586616190171,0.0002663161090079238,-2.643798828125,0.040673828125000006,9.701904296875,0.0,0.0,0.0,0.0,0.0,0.0,0.0,0.0,0.0,0.0,0.0,0.0,0.0,0.0,0.0,0.0,0.0,0.0,0.0,0.0,0.0,0.0,0.0,0.0,0.0,0.0,0.0,-0.04132729245110944,0.040673828125000006,10.05559104599105
1707028615.45479,0.0,0.0,0.0,0.0,0.0005326322180158476,-0.011984224905356573,0.012783173232380343,-2.576806640625,-0.2237060546875,9.668408203125,0.0,0.0,0.0,0.0,0.0,0.0,0.0,0.0,0.0,0.0,0.0,0.0,0.0,0.0,0.0,0.0,0.0,0.0,0.0,0.0,0.0,0.0,0.0,0.0,0.0,0.0,0.0,0.014706099138091844,-0.2237060546875,10.005889934237336
1707028615.455852,0.0,0.0,0.0,0.0,0.0018642127630554663,-0.013049489341388264,0.008255799379245636,-2.4296630859375004,-0.2476318359375,9.65166015625,0.0,0.0,0.0,0.0,0.0,0.0,0.0,0.0,0.0,0.0,0.0,0.0,0.0,0.0,0.0,0.0,0.0,0.0,0.0,0.0,0.0,0.0,0.0,0.0,0.0,0.0,0.0,0.15249386649377117,-0.2476318359375,9.951610528130253
1707028615.4686108,0.0,0.0,0.0,0.0,0.007456851052221865,-0.010652644360316953,0.011984224905356573,-2.4033447265625,-0.179443359375,9.6755859375,0.0,0.0,0.0,0.0,0.0,0.0,0.0,0.0,0.0,0.0,0.0,0.0,0.0,0.0,0.0,0.0,0.0,0.0,0.0,0.0,0.0,0.0,0.0,0.0,0.0,0.0,0.0,0.184110083114279,-0.179443359375,9.96790512524769
1707028615.469685,0.0,0.0,0.0,0.0,0.006391586616190171,-0.007989483270237713,-0.0002663161090079238,-2.3399414062500004,-0.0059814453125,9.7138671875,0.0,0.0,0.0,0.0,0.0,0.0,0.0,0.0,0.0,0.0,0.0,0.0,0.0,0.0,0.0,0.0,0.0,0.0,0.0,0.0,0.0,0.0,0.0,0.0,0.0,0.0,0.0,0.2552636620627462,-0.0059814453125,9.98846244343456
1707028615.4708378,0.0,0.0,0.0,0.0,0.005858954398174322,-0.005858954398174322,-0.001331580545039619,-2.2358642578125,0.1902099609375,9.6361083984375,0.0,0.0,0.0,0.0,0.0,0.0,0.0,0.0,0.0,0.0,0.0,0.0,0.0,0.0,0.0,0.0,0.0,0.0,0.0,0.0,0.0,0.0,0.0,0.0,0.0,0.0,0.0,0.33565532480852767,0.1902099609375,9.886405289524037
1707028615.508702,0.0,0.0,0.0,0.0,0.001331580545039619,0.0021305288720633903,-0.0015978966540475428,-2.299267578125,0.1949951171875,9.6552490234375,0.0,0.0,0.0,0.0,0.0,0.0,0.0,0.0,0.0,0.0,0.0,0.0,0.0,0.0,0.0,0.0,0.0,0.0,0.0,0.0,0.0,0.0,0.0,0.0,0.0,0.0,0.0,0.27937105966059583,0.1949951171875,9.921311249599606
1707028615.5097723,0.0,0.0,0.0,0.0,-0.002663161090079238,0.008788431597261486,-0.00346210941710301,-2.37822265625,0.0275146484375,9.68037109375,0.0,0.0,0.0,0.0,0.0,0.0,0.0,0.0,0.0,0.0,0.0,0.0,0.0,0.0,0.0,0.0,0.0,0.0,0.0,0.0,0.0,0.0,0.0,0.0,0.0,0.0,0.0,0.20961437683747475,0.0275146484375,9.96602174031516
1707028615.5110245,0.0,0.0,0.0,0.0,-0.006125270507182248,0.013315805450396187,-0.0042610577441267805,-2.4990478515625,-0.06699218750000001,9.7700927734375,0.0,0.0,0.0,0.0,0.0,0.0,0.0,0.0,0.0,0.0,0.0,0.0,0.0,0.0,0.0,0.0,0.0,0.0,0.0,0.0,0.0,0.0,0.0,0.0,0.0,0.0,0.0,0.11614369830692661,-0.06699218750000001,10.083970627055516
1707028615.52835,0.0,0.0,0.0,0.0,-0.007456851052221865,0.00692421883420602,-0.006391586616190171,-2.3865966796875,-0.25600585937500003,9.649267578125,0.0,0.0,0.0,0.0,0.0,0.0,0.0,0.0,0.0,0.0,0.0,0.0,0.0,0.0,0.0,0.0,0.0,0.0,0.0,0.0,0.0,0.0,0.0,0.0,0.0,0.0,0.0,0.1934717704489124,-0.25600585937500003,9.93814757285225
1707028615.52946,0.0,0.0,0.0,0.0,-0.005326322180158476,0.012783173232380343,-0.0031957933080950856,-2.4894775390625004,-0.246435546875,9.6552490234375,0.0,0.0,0.0,0.0,0.0,0.0,0.0,0.0,0.0,0.0,0.0,0.0,0.0,0.0,0.0,0.0,0.0,0.0,0.0,0.0,0.0,0.0,0.0,0.0,0.0,0.0,0.0,0.0956489504162632,-0.246435546875,9.97056585156388
1707028615.530825,0.0,0.0,0.0,0.0,-0.0015978966540475428,0.016511598758491276,0.009587379924285256,-2.6258544921875,-0.2452392578125,9.663623046875,0.0,0.0,0.0,0.0,0.0,0.0,0.0,0.0,0.0,0.0,0.0,0.0,0.0,0.0,0.0,0.0,0.0,0.0,0.0,0.0,0.0,0.0,0.0,0.0,0.0,0.0,0.0,-0.033907893861120364,-0.2452392578125,10.013968866586755
1707028615.5876231,0.0,0.0,0.0,0.0,-0.0007989483270237714,0.014647385995435807,0.012783173232380343,-2.653369140625,-0.2572021484375,9.644482421875,0.0,0.0,0.0,0.0,0.0,0.0,0.0,0.0,0.0,0.0,0.0,0.0,0.0,0.0,0.0,0.0,0.0,0.0,0.0,0.0,0.0,0.0,0.0,0.0,0.0,0.0,0.0,-0.06544048596205121,-0.2572021484375,10.002605986695366
1707028615.588735,0.0,0.0,0.0,0.0,0.0010652644360316951,0.014381069886427884,0.0111852765783328,-2.7646240234375004,-0.212939453125,9.634912109375,0.0,0.0,0.0,0.0,0.0,0.0,0.0,0.0,0.0,0.0,0.0,0.0,0.0,0.0,0.0,0.0,0.0,0.0,0.0,0.0,0.0,0.0,0.0,0.0,0.0,0.0,0.0,-0.17537880656228477,-0.212939453125,10.022171402473495
1707028615.589804,0.0,0.0,0.0,0.0,0.0,0.009321063815277331,0.003994741635118856,-2.83759765625,-0.16748046875,9.725830078125,0.0,0.0,0.0,0.0,0.0,0.0,0.0,0.0,0.0,0.0,0.0,0.0,0.0,0.0,0.0,0.0,0.0,0.0,0.0,0.0,0.0,0.0,0.0,0.0,0.0,0.0,0.0,-0.22232030916995482,-0.16748046875,10.128884679343873
1707028615.5908885,0.0,0.0,0.0,0.0,0.0,0.0,-0.002929477199087161,-2.75625,-0.14833984375,9.668408203125,0.0,0.0,0.0,0.0,0.0,0.0,0.0,0.0,0.0,0.0,0.0,0.0,0.0,0.0,0.0,0.0,0.0,0.0,0.0,0.0,0.0,0.0,0.0,0.0,0.0,0.0,0.0,-0.15861664543203302,-0.14833984375,10.052356539864007
1707028615.5921175,0.0,0.0,0.0,0.0,-0.0010652644360316951,-0.0010652644360316951,-0.006125270507182248,-2.648583984375,-0.165087890625,9.566723632812499,0.0,0.0,0.0,0.0,0.0,0.0,0.0,0.0,0.0,0.0,0.0,0.0,0.0,0.0,0.0,0.0,0.0,0.0,0.0,0.0,0.0,0.0,0.0,0.0,0.0,0.0,0.0,-0.08095407521173925,-0.165087890625,9.926260354564933
1707028615.6314504,0.0,0.0,0.0,0.0,-0.0002663161090079238,0.0031957933080950856,-0.0023968449810713144,-2.729931640625,-0.26796875000000003,9.615771484375,0.0,0.0,0.0,0.0,0.0,0.0,0.0,0.0,0.0,0.0,0.0,0.0,0.0,0.0,0.0,0.0,0.0,0.0,0.0,0.0,0.0,0.0,0.0,0.0,0.0,0.0,0.0,-0.14682618054557217,-0.26796875000000003,9.994700099298193
1707028615.6325145,0.0,0.0,0.0,0.0,0.0015978966540475428,0.0015978966540475428,-0.0037284255261109327,-2.7287353515625004,-0.3289794921875,9.5547607421875,0.0,0.0,0.0,0.0,0.0,0.0,0.0,0.0,0.0,0.0,0.0,0.0,0.0,0.0,0.0,0.0,0.0,0.0,0.0,0.0,0.0,0.0,0.0,0.0,0.0,0.0,0.0,-0.16146934149483938,-0.3289794921875,9.935460588773505
1707028615.633674,0.0,0.0,0.0,0.0,0.005060006071150552,0.0023968449810713144,0.0,-2.8148681640625,-0.275146484375,9.734204101562499,0.0,0.0,0.0,0.0,0.0,0.0,0.0,0.0,0.0,0.0,0.0,0.0,0.0,0.0,0.0,0.0,0.0,0.0,0.0,0.0,0.0,0.0,0.0,0.0,0.0,0.0,0.0,-0.19819765326182814,-0.275146484375,10.131087304044431
1707028615.6690476,0.0,0.0,0.0,0.0,0.008255799379245636,-0.007190534943213943,0.002929477199087161,-2.7765869140625004,-0.15073242187500002,9.6755859375,0.0,0.0,0.0,0.0,0.0,0.0,0.0,0.0,0.0,0.0,0.0,0.0,0.0,0.0,0.0,0.0,0.0,0.0,0.0,0.0,0.0,0.0,0.0,0.0,0.0,0.0,0.0,-0.17640122559158078,-0.15073242187500002,10.064555664951168
1707028615.6701248,0.0,0.0,0.0,0.0,0.007190534943213943,-0.01251685712337242,-0.002663161090079238,-2.595947265625,-0.0442626953125,9.6121826171875,0.0,0.0,0.0,0.0,0.0,0.0,0.0,0.0,0.0,0.0,0.0,0.0,0.0,0.0,0.0,0.0,0.0,0.0,0.0,0.0,0.0,0.0,0.0,0.0,0.0,0.0,0.0,-0.018341196712412522,-0.0442626953125,9.956538578872209
1707028615.6712165,0.0,0.0,0.0,0.0,0.006657902725198095,-0.008522115488253561,0.0002663161090079238,-2.5564697265625,0.0705810546875,9.6361083984375,0.0,0.0,0.0,0.0,0.0,0.0,0.0,0.0,0.0,0.0,0.0,0.0,0.0,0.0,0.0,0.0,0.0,0.0,0.0,0.0,0.0,0.0,0.0,0.0,0.0,0.0,0.0,0.025985354509904912,0.0705810546875,9.969425624910357
1707028615.6722755,0.0,0.0,0.0,0.0,0.0002663161090079238,-0.005326322180158476,-0.0031957933080950856,-2.5516845703125,0.083740234375,9.7054931640625,0.0,0.0,0.0,0.0,0.0,0.0,0.0,0.0,0.0,0.0,0.0,0.0,0.0,0.0,0.0,0.0,0.0,0.0,0.0,0.0,0.0,0.0,0.0,0.0,0.0,0.0,0.0,0.04857438187408736,0.083740234375,10.035204643327425
1707028615.6886551,0.0,0.0,0.0,0.0,-0.001331580545039619,-0.008788431597261486,0.0002663161090079238,-2.4368408203125,-0.088525390625,9.615771484375,0.0,0.0,0.0,0.0,0.0,0.0,0.0,0.0,0.0,0.0,0.0,0.0,0.0,0.0,0.0,0.0,0.0,0.0,0.0,0.0,0.0,0.0,0.0,0.0,0.0,0.0,0.0,0.13626763558563182,-0.088525390625,9.918804643441295
1707028615.689726,0.0,0.0,0.0,0.0,-0.002663161090079238,-0.002929477199087161,0.0018642127630554663,-2.45,-0.1830322265625,9.6600341796875,0.0,0.0,0.0,0.0,0.0,0.0,0.0,0.0,0.0,0.0,0.0,0.0,0.0,0.0,0.0,0.0,0.0,0.0,0.0,0.0,0.0,0.0,0.0,0.0,0.0,0.0,0.0,0.13501906370506855,-0.1830322265625,9.964965138181215
1707028615.6907942,0.0,0.0,0.0,0.0,-0.0007989483270237714,-0.00346210941710301,0.005858954398174322,-2.469140625,-0.29548339843750004,9.6839599609375,0.0,0.0,0.0,0.0,0.0,0.0,0.0,0.0,0.0,0.0,0.0,0.0,0.0,0.0,0.0,0.0,0.0,0.0,0.0,0.0,0.0,0.0,0.0,0.0,0.0,0.0,0.0,0.12272685170114483,-0.29548339843750004,9.993031275390743
1707028615.7283664,0.0,0.0,0.0,0.0,0.0018642127630554663,-0.002929477199087161,0.0018642127630554663,-2.41650390625,-0.155517578125,9.664819335937501,0.0,0.0,0.0,0.0,0.0,0.0,0.0,0.0,0.0,0.0,0.0,0.0,0.0,0.0,0.0,0.0,0.0,0.0,0.0,0.0,0.0,0.0,0.0,0.0,0.0,0.0,0.0,0.1686117521748698,-0.155517578125,9.960913311652774
1707028615.7296453,0.0,0.0,0.0,0.0,0.0031957933080950856,-0.0005326322180158476,0.006125270507182248,-2.4212890625,-0.0849365234375,9.669604492187501,0.0,0.0,0.0,0.0,0.0,0.0,0.0,0.0,0.0,0.0,0.0,0.0,0.0,0.0,0.0,0.0,0.0,0.0,0.0,0.0,0.0,0.0,0.0,0.0,0.0,0.0,0.0,0.1652289218030445,-0.0849365234375,9.966774360991355
1707028615.7307875,0.0,0.0,0.0,0.0,0.0021305288720633903,0.0,0.005858954398174322,-2.390185546875,-0.0705810546875,9.621752929687501,0.0,0.0,0.0,0.0,0.0,0.0,0.0,0.0,0.0,0.0,0.0,0.0,0.0,0.0,0.0,0.0,0.0,0.0,0.0,0.0,0.0,0.0,0.0,0.0,0.0,0.0,0.0,0.1828804360280869,-0.0705810546875,9.912500750797365
1707028615.754707,0.0,0.0,0.0,0.0,0.0005326322180158476,0.0042610577441267805,0.0002663161090079238,-2.3531005859375,-0.0035888671875,9.615771484375,0.0,0.0,0.0,0.0,0.0,0.0,0.0,0.0,0.0,0.0,0.0,0.0,0.0,0.0,0.0,0.0,0.0,0.0,0.0,0.0,0.0,0.0,0.0,0.0,0.0,0.0,0.0,0.2171515830516899,-0.0035888671875,9.897120227482182
1707028615.7558007,0.0,0.0,0.0,0.0,-0.0010652644360316951,0.010386328251309028,0.0002663161090079238,-2.481103515625,-0.1088623046875,9.682763671875,0.0,0.0,0.0,0.0,0.0,0.0,0.0,0.0,0.0,0.0,0.0,0.0,0.0,0.0,0.0,0.0,0.0,0.0,0.0,0.0,0.0,0.0,0.0,0.0,0.0,0.0,0.0,0.1108622246922919,-0.1088623046875,9.994973564135385
1707028615.756837,0.0,0.0,0.0,0.0,-0.002663161090079238,0.009321063815277331,-0.007190534943213943,-2.552880859375,-0.17705078125,9.6719970703125,0.0,0.0,0.0,0.0,0.0,0.0,0.0,0.0,0.0,0.0,0.0,0.0,0.0,0.0,0.0,0.0,0.0,0.0,0.0,0.0,0.0,0.0,0.0,0.0,0.0,0.0,0.0,0.03874513052664197,-0.17705078125,10.003160841711848
1707028615.788545,0.0,0.0,0.0,0.0,-0.0018642127630554663,0.008255799379245636,-0.008255799379245636,-2.5325439453125,-0.16748046875,9.644482421875,0.0,0.0,0.0,0.0,0.0,0.0,0.0,0.0,0.0,0.0,0.0,0.0,0.0,0.0,0.0,0.0,0.0,0.0,0.0,0.0,0.0,0.0,0.0,0.0,0.0,0.0,0.0,0.051263495381832946,-0.16748046875,9.971318472240073
1707028615.78963,0.0,0.0,0.0,0.0,-0.0015978966540475428,0.010652644360316953,-0.0018642127630554663,-2.5612548828125004,-0.208154296875,9.616967773437501,0.0,0.0,0.0,0.0,0.0,0.0,0.0,0.0,0.0,0.0,0.0,0.0,0.0,0.0,0.0,0.0,0.0,0.0,0.0,0.0,0.0,0.0,0.0,0.0,0.0,0.0,0.0,0.016406976721189626,-0.208154296875,9.952176974972922
1707028615.7907057,0.0,0.0,0.0,0.0,-0.0007989483270237714,0.013582121559404116,0.002929477199087161,-2.6318359375,-0.236865234375,9.627734375,0.0,0.0,0.0,0.0,0.0,0.0,0.0,0.0,0.0,0.0,0.0,0.0,0.0,0.0,0.0,0.0,0.0,0.0,0.0,0.0,0.0,0.0,0.0,0.0,0.0,0.0,0.0,-0.0489786398054588,-0.236865234375,9.980853204526953
1707028615.8087504,0.0,0.0,0.0,0.0,0.001331580545039619,0.011717908796348644,0.009054747706269408,-2.725146484375,-0.210546875,9.621752929687501,0.0,0.0,0.0,0.0,0.0,0.0,0.0,0.0,0.0,0.0,0.0,0.0,0.0,0.0,0.0,0.0,0.0,0.0,0.0,0.0,0.0,0.0,0.0,0.0,0.0,0.0,0.0,-0.1406553538361459,-0.210546875,9.999238414633819
1707028615.8097963,0.0,0.0,0.0,0.0,0.0018642127630554663,0.010120012142301104,0.011451592687340723,-2.8531494140625,-0.2117431640625,9.6564453125,0.0,0.0,0.0,0.0,0.0,0.0,0.0,0.0,0.0,0.0,0.0,0.0,0.0,0.0,0.0,0.0,0.0,0.0,0.0,0.0,0.0,0.0,0.0,0.0,0.0,0.0,0.0,-0.2553087012083455,-0.2117431640625,10.065893657264402
1707028615.8108633,0.0,0.0,0.0,0.0,0.0021305288720633903,0.0031957933080950856,0.005858954398174322,-2.8483642578125004,-0.1064697265625,9.68994140625,0.0,0.0,0.0,0.0,0.0,0.0,0.0,0.0,0.0,0.0,0.0,0.0,0.0,0.0,0.0,0.0,0.0,0.0,0.0,0.0,0.0,0.0,0.0,0.0,0.0,0.0,0.0,-0.2420129949694969,-0.1064697265625,10.097008126767449
1707028615.8484936,0.0,0.0,0.0,0.0,0.0007989483270237714,-0.00346210941710301,0.002663161090079238,-2.7227539062500004,-0.098095703125,9.66123046875,0.0,0.0,0.0,0.0,0.0,0.0,0.0,0.0,0.0,0.0,0.0,0.0,0.0,0.0,0.0,0.0,0.0,0.0,0.0,0.0,0.0,0.0,0.0,0.0,0.0,0.0,0.0,-0.128121730670677,-0.098095703125,10.036749863697558
1707028615.8495655,0.0,0.0,0.0,0.0,0.0002663161090079238,-0.0031957933080950856,0.0007989483270237714,-2.7167724609375004,-0.1926025390625,9.6373046875,0.0,0.0,0.0,0.0,0.0,0.0,0.0,0.0,0.0,0.0,0.0,0.0,0.0,0.0,0.0,0.0,0.0,0.0,0.0,0.0,0.0,0.0,0.0,0.0,0.0,0.0,0.0,-0.12853985326856243,-0.1926025390625,10.012091277567318
1707028615.8507483,0.0,0.0,0.0,0.0,0.0010652644360316951,-0.00346210941710301,-0.005858954398174322,-2.6689208984375004,-0.1662841796875,9.640893554687501,0.0,0.0,0.0,0.0,0.0,0.0,0.0,0.0,0.0,0.0,0.0,0.0,0.0,0.0,0.0,0.0,0.0,0.0,0.0,0.0,0.0,0.0,0.0,0.0,0.0,0.0,0.0,-0.08139112260399539,-0.1662841796875,10.003166637624943
1707028615.868308,0.0,0.0,0.0,0.0,0.0023968449810713144,-0.0031957933080950856,-0.005060006071150552,-2.6473876953125,-0.15073242187500002,9.6480712890625,0.0,0.0,0.0,0.0,0.0,0.0,0.0,0.0,0.0,0.0,0.0,0.0,0.0,0.0,0.0,0.0,0.0,0.0,0.0,0.0,0.0,0.0,0.0,0.0,0.0,0.0,0.0,-0.05873372903051344,-0.15073242187500002,10.004523554732545
1707028615.8693743,0.0,0.0,0.0,0.0,0.002663161090079238,-0.0042610577441267805,-0.004527373853134705,-2.6282470703125,-0.16867675781250002,9.662426757812499,0.0,0.0,0.0,0.0,0.0,0.0,0.0,0.0,0.0,0.0,0.0,0.0,0.0,0.0,0.0,0.0,0.0,0.0,0.0,0.0,0.0,0.0,0.0,0.0,0.0,0.0,0.0,-0.036528641159566444,-0.16867675781250002,10.013432936364643
1707028615.8704507,0.0,0.0,0.0,0.0,0.0031957933080950856,-0.005858954398174322,-0.002929477199087161,-2.55048828125,-0.1064697265625,9.6361083984375,0.0,0.0,0.0,0.0,0.0,0.0,0.0,0.0,0.0,0.0,0.0,0.0,0.0,0.0,0.0,0.0,0.0,0.0,0.0,0.0,0.0,0.0,0.0,0.0,0.0,0.0,0.0,0.03176277932890903,-0.1064697265625,9.967876738056134
1707028615.9091723,0.0,0.0,0.0,0.0,0.001331580545039619,-0.003994741635118856,0.0015978966540475428,-2.538525390625,-0.133984375,9.67080078125,0.0,0.0,0.0,0.0,0.0,0.0,0.0,0.0,0.0,0.0,0.0,0.0,0.0,0.0,0.0,0.0,0.0,0.0,0.0,0.0,0.0,0.0,0.0,0.0,0.0,0.0,0.0,0.05230117272140733,-0.133984375,9.998288028297914
1707028615.9102604,0.0,0.0,0.0,0.0,0.0015978966540475428,-0.002663161090079238,0.002929477199087161,-2.5169921875,-0.1423583984375,9.638500976562499,0.0,0.0,0.0,0.0,0.0,0.0,0.0,0.0,0.0,0.0,0.0,0.0,0.0,0.0,0.0,0.0,0.0,0.0,0.0,0.0,0.0,0.0,0.0,0.0,0.0,0.0,0.0,0.06473591305702087,-0.1423583984375,9.96151394160009
1707028615.9113538,0.0,0.0,0.0,0.0,0.001331580545039619,0.0005326322180158476,0.0015978966540475428,-2.5361328125,-0.0490478515625,9.7078857421875,0.0,0.0,0.0,0.0,0.0,0.0,0.0,0.0,0.0,0.0,0.0,0.0,0.0,0.0,0.0,0.0,0.0,0.0,0.0,0.0,0.0,0.0,0.0,0.0,0.0,0.0,0.0,0.06421524114518773,-0.0490478515625,10.03348850743405
1707028615.9283605,0.0,0.0,0.0,0.0,0.0005326322180158476,-0.0015978966540475428,0.0042610577441267805,-2.5744140625,-0.1399658203125,9.7031005859375,0.0,0.0,0.0,0.0,0.0,0.0,0.0,0.0,0.0,0.0,0.0,0.0,0.0,0.0,0.0,0.0,0.0,0.0,0.0,0.0,0.0,0.0,0.0,0.0,0.0,0.0,0.0,0.026000612820183733,-0.1399658203125,10.038779443445872
1707028615.9295046,0.0,0.0,0.0,0.0,0.0002663161090079238,-0.0037284255261109327,-0.0015978966540475428,-2.509814453125,-0.145947265625,9.6361083984375,0.0,0.0,0.0,0.0,0.0,0.0,0.0,0.0,0.0,0.0,0.0,0.0,0.0,0.0,0.0,0.0,0.0,0.0,0.0,0.0,0.0,0.0,0.0,0.0,0.0,0.0,0.0,0.07104926809813694,-0.145947265625,9.957344307447421
1707028615.9305708,0.0,0.0,0.0,0.0,-0.0002663161090079238,-0.00346210941710301,-0.0015978966540475428,-2.442822265625,-0.1208251953125,9.63251953125,0.0,0.0,0.0,0.0,0.0,0.0,0.0,0.0,0.0,0.0,0.0,0.0,0.0,0.0,0.0,0.0,0.0,0.0,0.0,0.0,0.0,0.0,0.0,0.0,0.0,0.0,0.0,0.13482709395845083,-0.1208251953125,9.936530319788728
1707028615.9718723,0.0,0.0,0.0,0.0,-0.0005326322180158476,0.0002663161090079238,0.0005326322180158476,-2.4440185546875,-0.179443359375,9.673193359375,0.0,0.0,0.0,0.0,0.0,0.0,0.0,0.0,0.0,0.0,0.0,0.0,0.0,0.0,0.0,0.0,0.0,0.0,0.0,0.0,0.0,0.0,0.0,0.0,0.0,0.0,0.0,0.1442040396033617,-0.179443359375,9.976126585928801
1707028615.9729476,0.0,0.0,0.0,0.0,0.0010652644360316951,0.003994741635118856,0.0002663161090079238,-2.4583740234375,-0.13876953125000002,9.687548828125,0.0,0.0,0.0,0.0,0.0,0.0,0.0,0.0,0.0,0.0,0.0,0.0,0.0,0.0,0.0,0.0,0.0,0.0,0.0,0.0,0.0,0.0,0.0,0.0,0.0,0.0,0.0,0.1340555484878858,-0.13876953125000002,9.993709733944545
1707028615.9740255,0.0,0.0,0.0,0.0,0.0005326322180158476,0.005326322180158476,0.0031957933080950856,-2.4476074218750004,-0.160302734375,9.662426757812499,0.0,0.0,0.0,0.0,0.0,0.0,0.0,0.0,0.0,0.0,0.0,0.0,0.0,0.0,0.0,0.0,0.0,0.0,0.0,0.0,0.0,0.0,0.0,0.0,0.0,0.0,0.0,0.13794958837435845,-0.160302734375,9.966656553367127
1707028615.9880886,0.0,0.0,0.0,0.0,0.0,0.009054747706269408,0.004527373853134705,-2.5516845703125,-0.172265625,9.669604492187501,0.0,0.0,0.0,0.0,0.0,0.0,0.0,0.0,0.0,0.0,0.0,0.0,0.0,0.0,0.0,0.0,0.0,0.0,0.0,0.0,0.0,0.0,0.0,0.0,0.0,0.0,0.0,0.03928106074875348,-0.172265625,10.000540094413402
1707028615.9891465,0.0,0.0,0.0,0.0,0.0005326322180158476,0.009321063815277331,0.0005326322180158476,-2.605517578125,-0.098095703125,9.6552490234375,0.0,0.0,0.0,0.0,0.0,0.0,0.0,0.0,0.0,0.0,0.0,0.0,0.0,0.0,0.0,0.0,0.0,0.0,0.0,0.0,0.0,0.0,0.0,0.0,0.0,0.0,0.0,-0.016433091072417305,-0.098095703125,10.000614256535794
1707028615.9902153,0.0,0.0,0.0,0.0,0.0005326322180158476,0.00692421883420602,0.0007989483270237714,-2.6426025390625,-0.1064697265625,9.67080078125,0.0,0.0,0.0,0.0,0.0,0.0,0.0,0.0,0.0,0.0,0.0,0.0,0.0,0.0,0.0,0.0,0.0,0.0,0.0,0.0,0.0,0.0,0.0,0.0,0.0,0.0,0.0,-0.048226019129265385,-0.1064697265625,10.025238659561383
1707028616.0280852,0.0,0.0,0.0,0.0,0.0,0.005858954398174322,-0.0002663161090079238,-2.6186767578125,-0.1471435546875,9.646875,0.0,0.0,0.0,0.0,0.0,0.0,0.0,0.0,0.0,0.0,0.0,0.0,0.0,0.0,0.0,0.0,0.0,0.0,0.0,0.0,0.0,0.0,0.0,0.0,0.0,0.0,0.0,-0.031311867270138016,-0.1471435546875,9.995933412868476
1707028616.029147,0.0,0.0,0.0,0.0,0.0,0.008788431597261486,-0.0005326322180158476,-2.660546875,-0.1423583984375,9.687548828125,0.0,0.0,0.0,0.0,0.0,0.0,0.0,0.0,0.0,0.0,0.0,0.0,0.0,0.0,0.0,0.0,0.0,0.0,0.0,0.0,0.0,0.0,0.0,0.0,0.0,0.0,0.0,-0.061221410394455056,-0.1423583984375,10.046062109617262
1707028616.030382,0.0,0.0,0.0,0.0,0.0002663161090079238,0.006657902725198095,0.0018642127630554663,-2.73232421875,-0.2021728515625,9.6755859375,0.0,0.0,0.0,0.0,0.0,0.0,0.0,0.0,0.0,0.0,0.0,0.0,0.0,0.0,0.0,0.0,0.0,0.0,0.0,0.0,0.0,0.0,0.0,0.0,0.0,0.0,0.0,-0.13364828193094969,-0.2021728515625,10.053093902229921
1707028616.0489194,0.0,0.0,0.0,0.0,0.0015978966540475428,0.004793689962142629,0.001331580545039619,-2.7741943359375,-0.16867675781250002,9.662426757812499,0.0,0.0,0.0,0.0,0.0,0.0,0.0,0.0,0.0,0.0,0.0,0.0,0.0,0.0,0.0,0.0,0.0,0.0,0.0,0.0,0.0,0.0,0.0,0.0,0.0,0.0,0.0,-0.17749780674326843,-0.16867675781250002,10.05122577560767
1707028616.0499675,0.0,0.0,0.0,0.0,0.0015978966540475428,-0.0010652644360316951,0.0002663161090079238,-2.71796875,-0.13278808593750002,9.606201171875,0.0,0.0,0.0,0.0,0.0,0.0,0.0,0.0,0.0,0.0,0.0,0.0,0.0,0.0,0.0,0.0,0.0,0.0,0.0,0.0,0.0,0.0,0.0,0.0,0.0,0.0,0.0,-0.1377495498743193,-0.13278808593750002,9.98235844587934
1707028616.0510828,0.0,0.0,0.0,0.0,0.0015978966540475428,-0.001331580545039619,0.0021305288720633903,-2.65576171875,-0.153125,9.616967773437501,0.0,0.0,0.0,0.0,0.0,0.0,0.0,0.0,0.0,0.0,0.0,0.0,0.0,0.0,0.0,0.0,0.0,0.0,0.0,0.0,0.0,0.0,0.0,0.0,0.0,0.0,0.0,-0.07487633541907579,-0.153125,9.976649387269635
1707028616.0882394,0.0,0.0,0.0,0.0,0.0015978966540475428,0.0007989483270237714,0.0021305288720633903,-2.682080078125,-0.1208251953125,9.6815673828125,0.0,0.0,0.0,0.0,0.0,0.0,0.0,0.0,0.0,0.0,0.0,0.0,0.0,0.0,0.0,0.0,0.0,0.0,0.0,0.0,0.0,0.0,0.0,0.0,0.0,0.0,0.0,-0.08356902659709231,-0.1208251953125,10.045860677473458
1707028616.0893188,0.0,0.0,0.0,0.0,0.0007989483270237714,-0.002929477199087161,0.002929477199087161,-2.677294921875,-0.1495361328125,9.668408203125,0.0,0.0,0.0,0.0,0.0,0.0,0.0,0.0,0.0,0.0,0.0,0.0,0.0,0.0,0.0,0.0,0.0,0.0,0.0,0.0,0.0,0.0,0.0,0.0,0.0,0.0,0.0,-0.08235463782117813,-0.1495361328125,10.031911233388271
1707028616.0903904,0.0,0.0,0.0,0.0,0.0005326322180158476,-0.004793689962142629,0.0018642127630554663,-2.6186767578125,-0.1854248046875,9.644482421875,0.0,0.0,0.0,0.0,0.0,0.0,0.0,0.0,0.0,0.0,0.0,0.0,0.0,0.0,0.0,0.0,0.0,0.0,0.0,0.0,0.0,0.0,0.0,0.0,0.0,0.0,0.0,-0.03193142201182697,-0.1854248046875,9.993622442940875
1707028616.1084075,0.0,0.0,0.0,0.0,0.0015978966540475428,-0.004793689962142629,-0.0007989483270237714,-2.5564697265625,-0.16867675781250002,9.643286132812499,0.0,0.0,0.0,0.0,0.0,0.0,0.0,0.0,0.0,0.0,0.0,0.0,0.0,0.0,0.0,0.0,0.0,0.0,0.0,0.0,0.0,0.0,0.0,0.0,0.0,0.0,0.0,0.027844018734971776,-0.16867675781250002,9.97635853469316
1707028616.1094725,0.0,0.0,0.0,0.0,0.0015978966540475428,-0.004527373853134705,-0.0018642127630554663,-2.509814453125,-0.1423583984375,9.68037109375,0.0,0.0,0.0,0.0,0.0,0.0,0.0,0.0,0.0,0.0,0.0,0.0,0.0,0.0,0.0,0.0,0.0,0.0,0.0,0.0,0.0,0.0,0.0,0.0,0.0,0.0,0.0,0.08251103081938327,-0.1423583984375,10.000097251108052
1707028616.110537,0.0,0.0,0.0,0.0,0.0021305288720633903,-0.002663161090079238,-0.001331580545039619,-2.5397216796875,-0.1136474609375,9.682763671875,0.0,0.0,0.0,0.0,0.0,0.0,0.0,0.0,0.0,0.0,0.0,0.0,0.0,0.0,0.0,0.0,0.0,0.0,0.0,0.0,0.0,0.0,0.0,0.0,0.0,0.0,0.0,0.05424346146605119,-0.1136474609375,10.010152655306765
1707028616.1513307,0.0,0.0,0.0,0.0,0.0010652644360316951,-0.002663161090079238,-0.0023968449810713144,-2.5181884765625,-0.095703125,9.6576416015625,0.0,0.0,0.0,0.0,0.0,0.0,0.0,0.0,0.0,0.0,0.0,0.0,0.0,0.0,0.0,0.0,0.0,0.0,0.0,0.0,0.0,0.0,0.0,0.0,0.0,0.0,0.0,0.06853686602673204,-0.095703125,9.980311478391748
1707028616.1524699,0.0,0.0,0.0,0.0,0.0005326322180158476,-0.0005326322180158476,0.0007989483270237714,-2.4990478515625,-0.1495361328125,9.65166015625,0.0,0.0,0.0,0.0,0.0,0.0,0.0,0.0,0.0,0.0,0.0,0.0,0.0,0.0,0.0,0.0,0.0,0.0,0.0,0.0,0.0,0.0,0.0,0.0,0.0,0.0,0.0,0.08547573859332314,-0.1495361328125,9.969577615639233
1707028616.1535127,0.0,0.0,0.0,0.0,0.0007989483270237714,0.0021305288720633903,-0.0005326322180158476,-2.485888671875,-0.1638916015625,9.654052734375,0.0,0.0,0.0,0.0,0.0,0.0,0.0,0.0,0.0,0.0,0.0,0.0,0.0,0.0,0.0,0.0,0.0,0.0,0.0,0.0,0.0,0.0,0.0,0.0,0.0,0.0,0.0,0.0988056279368208,-0.1638916015625,9.968481034487546
1707028616.1688683,0.0,0.0,0.0,0.0,0.0018642127630554663,0.0042610577441267805,0.0002663161090079238,-2.528955078125,-0.08732910156250001,9.686352539062499,0.0,0.0,0.0,0.0,0.0,0.0,0.0,0.0,0.0,0.0,0.0,0.0,0.0,0.0,0.0,0.0,0.0,0.0,0.0,0.0,0.0,0.0,0.0,0.0,0.0,0.0,0.0,0.06557215825279172,-0.08732910156250001,10.010831113860569
1707028616.1698885,0.0,0.0,0.0,0.0,0.0015978966540475428,0.0023968449810713144,0.0010652644360316951,-2.5301513671875,-0.112451171875,9.67080078125,0.0,0.0,0.0,0.0,0.0,0.0,0.0,0.0,0.0,0.0,0.0,0.0,0.0,0.0,0.0,0.0,0.0,0.0,0.0,0.0,0.0,0.0,0.0,0.0,0.0,0.0,0.0,0.06038956746801327,-0.112451171875,9.996119586702001
1707028616.1709542,0.0,0.0,0.0,0.0,0.0005326322180158476,0.0002663161090079238,0.0005326322180158476,-2.51220703125,-0.0992919921875,9.644482421875,0.0,0.0,0.0,0.0,0.0,0.0,0.0,0.0,0.0,0.0,0.0,0.0,0.0,0.0,0.0,0.0,0.0,0.0,0.0,0.0,0.0,0.0,0.0,0.0,0.0,0.0,0.0,0.07090673976644712,-0.0992919921875,9.966052256935717
1707028616.2088668,0.0,0.0,0.0,0.0,0.0002663161090079238,0.0021305288720633903,0.0015978966540475428,-2.4942626953125,-0.11005859375,9.65166015625,0.0,0.0,0.0,0.0,0.0,0.0,0.0,0.0,0.0,0.0,0.0,0.0,0.0,0.0,0.0,0.0,0.0,0.0,0.0,0.0,0.0,0.0,0.0,0.0,0.0,0.0,0.0,0.09009767844852634,-0.11005859375,9.968338506155854
1707028616.209933,0.0,0.0,0.0,0.0,-0.0002663161090079238,0.005326322180158476,0.0023968449810713144,-2.5229736328125,-0.1614990234375,9.644482421875,0.0,0.0,0.0,0.0,0.0,0.0,0.0,0.0,0.0,0.0,0.0,0.0,0.0,0.0,0.0,0.0,0.0,0.0,0.0,0.0,0.0,0.0,0.0,0.0,0.0,0.0,0.0,0.06050737509223936,-0.1614990234375,9.968840253273317
1707028616.2109995,0.0,0.0,0.0,0.0,0.0007989483270237714,0.006657902725198095,0.0010652644360316951,-2.5636474609375,-0.117236328125,9.6791748046875,0.0,0.0,0.0,0.0,0.0,0.0,0.0,0.0,0.0,0.0,0.0,0.0,0.0,0.0,0.0,0.0,0.0,0.0,0.0,0.0,0.0,0.0,0.0,0.0,0.0,0.0,0.0,0.030204430077501065,-0.117236328125,10.012881747832255
1707028616.2296336,0.0,0.0,0.0,0.0,0.0,0.006391586616190171,0.0021305288720633903,-2.5875732421875,-0.136376953125,9.639697265625,0.0,0.0,0.0,0.0,0.0,0.0,0.0,0.0,0.0,0.0,0.0,0.0,0.0,0.0,0.0,0.0,0.0,0.0,0.0,0.0,0.0,0.0,0.0,0.0,0.0,0.0,0.0,-0.003127922436383379,-0.136376953125,9.980946291443715
1707028616.2307227,0.0,0.0,0.0,0.0,0.0005326322180158476,0.00772316716122979,0.002929477199087161,-2.6497802734375,-0.1710693359375,9.649267578125,0.0,0.0,0.0,0.0,0.0,0.0,0.0,0.0,0.0,0.0,0.0,0.0,0.0,0.0,0.0,0.0,0.0,0.0,0.0,0.0,0.0,0.0,0.0,0.0,0.0,0.0,0.0,-0.06073492158727056,-0.1710693359375,10.006298594438036
1707028616.2318149,0.0,0.0,0.0,0.0,-0.0002663161090079238,0.006125270507182248,0.0010652644360316951,-2.6796875,-0.1926025390625,9.6480712890625,0.0,0.0,0.0,0.0,0.0,0.0,0.0,0.0,0.0,0.0,0.0,0.0,0.0,0.0,0.0,0.0,0.0,0.0,0.0,0.0,0.0,0.0,0.0,0.0,0.0,0.0,0.0,-0.08993182305313585,-0.1926025390625,10.012887543745347
1707028616.2723956,0.0,0.0,0.0,0.0,-0.0002663161090079238,0.00346210941710301,0.002663161090079238,-2.6689208984375004,-0.17465820312500002,9.66123046875,0.0,0.0,0.0,0.0,0.0,0.0,0.0,0.0,0.0,0.0,0.0,0.0,0.0,0.0,0.0,0.0,0.0,0.0,0.0,0.0,0.0,0.0,0.0,0.0,0.0,0.0,0.0,-0.0761249072996395,-0.17465820312500002,10.022809882009556
1707028616.273462,0.0,0.0,0.0,0.0,0.0010652644360316951,0.002929477199087161,0.002663161090079238,-2.6904541015625,-0.169873046875,9.6576416015625,0.0,0.0,0.0,0.0,0.0,0.0,0.0,0.0,0.0,0.0,0.0,0.0,0.0,0.0,0.0,0.0,0.0,0.0,0.0,0.0,0.0,0.0,0.0,0.0,0.0,0.0,0.0,-0.0978529687605878,-0.169873046875,10.024919419793353
1707028616.2745354,0.0,0.0,0.0,0.0,0.0015978966540475428,0.0007989483270237714,0.002663161090079238,-2.682080078125,-0.155517578125,9.643286132812499,0.0,0.0,0.0,0.0,0.0,0.0,0.0,0.0,0.0,0.0,0.0,0.0,0.0,0.0,0.0,0.0,0.0,0.0,0.0,0.0,0.0,0.0,0.0,0.0,0.0,0.0,0.0,-0.09348190246411558,-0.155517578125,10.00888515863183
1707028616.2900243,0.0,0.0,0.0,0.0,0.001331580545039619,0.0,0.0015978966540475428,-2.6880615234375,-0.1818359375,9.643286132812499,0.0,0.0,0.0,0.0,0.0,0.0,0.0,0.0,0.0,0.0,0.0,0.0,0.0,0.0,0.0,0.0,0.0,0.0,0.0,0.0,0.0,0.0,0.0,0.0,0.0,0.0,0.0,-0.0992593272831197,-0.1818359375,10.010434045486052
1707028616.2910633,0.0,0.0,0.0,0.0,0.0010652644360316951,-0.0023968449810713144,0.0005326322180158476,-2.63662109375,-0.1638916015625,9.668408203125,0.0,0.0,0.0,0.0,0.0,0.0,0.0,0.0,0.0,0.0,0.0,0.0,0.0,0.0,0.0,0.0,0.0,0.0,0.0,0.0,0.0,0.0,0.0,0.0,0.0,0.0,0.0,-0.04306814905194978,-0.1638916015625,10.021378802779559
1707028616.2921343,0.0,0.0,0.0,0.0,0.0018642127630554663,-0.002929477199087161,-0.0007989483270237714,-2.60791015625,-0.1112548828125,9.654052734375,0.0,0.0,0.0,0.0,0.0,0.0,0.0,0.0,0.0,0.0,0.0,0.0,0.0,0.0,0.0,0.0,0.0,0.0,0.0,0.0,0.0,0.0,0.0,0.0,0.0,0.0,0.0,-0.01905383837086383,-0.1112548828125,10.000078326313682
1707028616.3239586,0.0,0.0,0.0,0.0,0.0018642127630554663,0.0023968449810713144,-0.0023968449810713144,-3.04814453125,-0.141162109375,9.589453125,0.0,0.0,0.0,0.0,0.0,0.0,0.0,0.0,0.0,0.0,0.0,0.0,0.0,0.0,0.0,0.0,0.0,0.0,0.0,0.0,0.0,0.0,0.0,0.0,0.0,0.0,0.0,-0.46100028307517205,-0.141162109375,10.051680210739207
1707028616.3274431,0.0,0.0,0.0,0.0,-0.0031957933080950856,-0.0021305288720633903,-0.018642127630554665,-4.2982666015625,-0.270361328125,10.7008056640625,0.0,0.0,0.0,0.0,0.0,0.0,0.0,0.0,0.0,0.0,0.0,0.0,0.0,0.0,0.0,0.0,0.0,0.0,0.0,0.0,0.0,0.0,0.0,0.0,0.0,0.0,0.0,-1.3806988927325206,-0.270361328125,11.44884309464266
1707028616.328528,0.0,0.0,0.0,0.0,0.00772316716122979,-0.1355548994850332,-0.009587379924285256,-0.3672607421875,-0.0131591796875,8.0103515625,0.0,0.0,0.0,0.0,0.0,0.0,0.0,0.0,0.0,0.0,0.0,0.0,0.0,0.0,0.0,0.0,0.0,0.0,0.0,0.0,0.0,0.0,0.0,0.0,0.0,0.0,0.0,1.7195353912877802,-0.0131591796875,7.832228970459628
1707028616.368363,0.0,0.0,0.0,0.0,-0.006391586616190171,0.04660531907638665,-0.02050634039361013,-2.4105224609375,0.0681884765625,9.8418701171875,0.0,0.0,0.0,0.0,0.0,0.0,0.0,0.0,0.0,0.0,0.0,0.0,0.0,0.0,0.0,0.0,0.0,0.0,0.0,0.0,0.0,0.0,0.0,0.0,0.0,0.0,0.0,0.220236227878857,0.0681884765625,10.130376199441075
1707028616.3694627,0.0,0.0,0.0,0.0,0.0015978966540475428,0.005060006071150552,-0.004793689962142629,-1.99541015625,0.0059814453125,9.6073974609375,0.0,0.0,0.0,0.0,0.0,0.0,0.0,0.0,0.0,0.0,0.0,0.0,0.0,0.0,0.0,0.0,0.0,0.0,0.0,0.0,0.0,0.0,0.0,0.0,0.0,0.0,0.0,0.560473145632228,0.0059814453125,9.796408398853076
1707028616.372508,0.0,0.0,0.0,0.0,-0.002663161090079238,0.02956108809987954,0.0005326322180158476,-2.069580078125,0.26318359375,9.6983154296875,0.0,0.0,0.0,0.0,0.0,0.0,0.0,0.0,0.0,0.0,0.0,0.0,0.0,0.0,0.0,0.0,0.0,0.0,0.0,0.0,0.0,0.0,0.0,0.0,0.0,0.0,0.0,0.5123761580607566,0.26318359375,9.903431453094298
1707028616.3887887,0.0,0.0,0.0,0.0,-0.0007989483270237714,0.0391484680241648,0.04820321573043421,-2.8483642578125004,-0.275146484375,9.9208251953125,0.0,0.0,0.0,0.0,0.0,0.0,0.0,0.0,0.0,0.0,0.0,0.0,0.0,0.0,0.0,0.0,0.0,0.0,0.0,0.0,0.0,0.0,0.0,0.0,0.0,0.0,0.0,-0.18222596239651256,-0.275146484375,10.320016724781006
1707028616.389872,0.0,0.0,0.0,0.0,-0.004527373853134705,0.013049489341388264,0.04101268078722026,-2.634228515625,-0.8577392578125,9.595434570312499,0.0,0.0,0.0,0.0,0.0,0.0,0.0,0.0,0.0,0.0,0.0,0.0,0.0,0.0,0.0,0.0,0.0,0.0,0.0,0.0,0.0,0.0,0.0,0.0,0.0,0.0,0.0,-0.059653598745861736,-0.8577392578125,9.950274665246019
1707028616.3909595,0.0,0.0,0.0,0.0,0.0042610577441267805,0.01970739206658636,-0.0023968449810713144,-2.9620117187500004,-0.3732421875,9.805981445312499,0.0,0.0,0.0,0.0,0.0,0.0,0.0,0.0,0.0,0.0,0.0,0.0,0.0,0.0,0.0,0.0,0.0,0.0,0.0,0.0,0.0,0.0,0.0,0.0,0.0,0.0,0.0,-0.3217356615586615,-0.3732421875,10.238519018486352
1707028616.4282413,0.0,0.0,0.0,0.0,0.007989483270237713,0.005060006071150552,-0.019973708175594285,-2.8986083984375,0.1806396484375,9.638500976562499,0.0,0.0,0.0,0.0,0.0,0.0,0.0,0.0,0.0,0.0,0.0,0.0,0.0,0.0,0.0,0.0,0.0,0.0,0.0,0.0,0.0,0.0,0.0,0.0,0.0,0.0,0.0,-0.3038637903954444,0.1806396484375,10.060332922899478
1707028616.4294946,0.0,0.0,0.0,0.0,0.0,-0.006657902725198095,-0.009853696033293181,-2.6641357421875,0.12680664062500002,9.7054931640625,0.0,0.0,0.0,0.0,0.0,0.0,0.0,0.0,0.0,0.0,0.0,0.0,0.0,0.0,0.0,0.0,0.0,0.0,0.0,0.0,0.0,0.0,0.0,0.0,0.0,0.0,0.0,-0.06004120472319041,0.12680664062500002,10.064323716186806
1707028616.4306135,0.0,0.0,0.0,0.0,-0.0015978966540475428,-0.0111852765783328,0.009587379924285256,-2.605517578125,-0.1232177734375,9.71865234375,0.0,0.0,0.0,0.0,0.0,0.0,0.0,0.0,0.0,0.0,0.0,0.0,0.0,0.0,0.0,0.0,0.0,0.0,0.0,0.0,0.0,0.0,0.0,0.0,0.0,0.0,0.0,-1.489041766022936e-05,-0.1232177734375,10.061854959617238
1707028616.4509895,0.0,0.0,0.0,0.0,-0.0037284255261109327,-0.010386328251309028,0.011984224905356573,-2.3985595703125,-0.37802734375,9.5380126953125,0.0,0.0,0.0,0.0,0.0,0.0,0.0,0.0,0.0,0.0,0.0,0.0,0.0,0.0,0.0,0.0,0.0,0.0,0.0,0.0,0.0,0.0,0.0,0.0,0.0,0.0,0.0,0.15310762532236755,-0.37802734375,9.833785244927217
1707028616.452357,0.0,0.0,0.0,0.0,0.0,-0.006125270507182248,0.001331580545039619,-2.2047607421875,-0.4533935546875,9.5762939453125,0.0,0.0,0.0,0.0,0.0,0.0,0.0,0.0,0.0,0.0,0.0,0.0,0.0,0.0,0.0,0.0,0.0,0.0,0.0,0.0,0.0,0.0,0.0,0.0,0.0,0.0,0.0,0.3502090653251253,-0.4533935546875,9.820576829692039
1707028616.45364,0.0,0.0,0.0,0.0,0.003994741635118856,0.01890844373956259,-0.016245282649483352,-2.438037109375,-0.0968994140625,9.66123046875,0.0,0.0,0.0,0.0,0.0,0.0,0.0,0.0,0.0,0.0,0.0,0.0,0.0,0.0,0.0,0.0,0.0,0.0,0.0,0.0,0.0,0.0,0.0,0.0,0.0,0.0,0.0,0.14688369071392104,-0.0968994140625,9.963022849436571
1707028616.4888031,0.0,0.0,0.0,0.0,0.008255799379245636,0.014381069886427884,-0.0002663161090079238,-2.6258544921875,0.057421875,9.7007080078125,0.0,0.0,0.0,0.0,0.0,0.0,0.0,0.0,0.0,0.0,0.0,0.0,0.0,0.0,0.0,0.0,0.0,0.0,0.0,0.0,0.0,0.0,0.0,0.0,0.0,0.0,0.0,-0.024304795364941345,0.057421875,10.04978890046458
1707028616.4898775,0.0,0.0,0.0,0.0,0.002663161090079238,0.014381069886427884,0.01251685712337242,-2.6701171875,-0.0657958984375,9.638500976562499,0.0,0.0,0.0,0.0,0.0,0.0,0.0,0.0,0.0,0.0,0.0,0.0,0.0,0.0,0.0,0.0,0.0,0.0,0.0,0.0,0.0,0.0,0.0,0.0,0.0,0.0,0.0,-0.08316616230948526,-0.0657958984375,10.001165445068184
1707028616.4909592,0.0,0.0,0.0,0.0,0.004527373853134705,0.014114753777419962,0.01890844373956259,-2.6988281250000004,-0.057421875,9.481787109375,0.0,0.0,0.0,0.0,0.0,0.0,0.0,0.0,0.0,0.0,0.0,0.0,0.0,0.0,0.0,0.0,0.0,0.0,0.0,0.0,0.0,0.0,0.0,0.0,0.0,0.0,0.0,-0.15147863702133213,-0.057421875,9.857231571710543
1707028616.5083685,0.0,0.0,0.0,0.0,-0.0007989483270237714,0.028495823663847848,0.00346210941710301,-3.2826171875,-0.093310546875,9.8861328125,0.0,0.0,0.0,0.0,0.0,0.0,0.0,0.0,0.0,0.0,0.0,0.0,0.0,0.0,0.0,0.0,0.0,0.0,0.0,0.0,0.0,0.0,0.0,0.0,0.0,0.0,0.0,-0.6106505480107041,-0.093310546875,10.39895684644733
1707028616.5095408,0.0,0.0,0.0,0.0,0.0,-0.008788431597261486,-0.006125270507182248,-3.007470703125,-0.17465820312500002,9.7557373046875,0.0,0.0,0.0,0.0,0.0,0.0,0.0,0.0,0.0,0.0,0.0,0.0,0.0,0.0,0.0,0.0,0.0,0.0,0.0,0.0,0.0,0.0,0.0,0.0,0.0,0.0,0.0,-0.3786547397585611,-0.17465820312500002,10.201760190098808
1707028616.510632,0.0,0.0,0.0,0.0,-0.001331580545039619,-0.017044230976507122,-0.011717908796348644,-2.8064941406250004,-0.1064697265625,9.7485595703125,0.0,0.0,0.0,0.0,0.0,0.0,0.0,0.0,0.0,0.0,0.0,0.0,0.0,0.0,0.0,0.0,0.0,0.0,0.0,0.0,0.0,0.0,0.0,0.0,0.0,0.0,0.0,-0.18639193006508847,-0.1064697265625,10.142784682014131
1707028616.5497828,0.0,0.0,0.0,0.0,0.0,-0.029827404208887465,-0.00772316716122979,-2.3100341796875004,-0.0921142578125,9.4877685546875,0.0,0.0,0.0,0.0,0.0,0.0,0.0,0.0,0.0,0.0,0.0,0.0,0.0,0.0,0.0,0.0,0.0,0.0,0.0,0.0,0.0,0.0,0.0,0.0,0.0,0.0,0.0,0.2256028630681608,-0.0921142578125,9.762331351005091
1707028616.5508895,0.0,0.0,0.0,0.0,-0.0007989483270237714,-0.006125270507182248,-0.00346210941710301,-2.342333984375,-0.15791015625,9.523657226562499,0.0,0.0,0.0,0.0,0.0,0.0,0.0,0.0,0.0,0.0,0.0,0.0,0.0,0.0,0.0,0.0,0.0,0.0,0.0,0.0,0.0,0.0,0.0,0.0,0.0,0.0,0.0,0.20369809017087226,-0.15791015625,9.805359888931916
1707028616.551992,0.0,0.0,0.0,0.0,0.001331580545039619,0.0055926382891664,-0.0021305288720633903,-2.52177734375,-0.1280029296875,9.66123046875,0.0,0.0,0.0,0.0,0.0,0.0,0.0,0.0,0.0,0.0,0.0,0.0,0.0,0.0,0.0,0.0,0.0,0.0,0.0,0.0,0.0,0.0,0.0,0.0,0.0,0.0,0.0,0.06599974324786295,-0.1280029296875,9.984707265395684
1707028616.5703144,0.0,0.0,0.0,0.0,0.0010652644360316951,0.009853696033293181,0.0010652644360316951,-2.696435546875,-0.15791015625,9.768896484375,0.0,0.0,0.0,0.0,0.0,0.0,0.0,0.0,0.0,0.0,0.0,0.0,0.0,0.0,0.0,0.0,0.0,0.0,0.0,0.0,0.0,0.0,0.0,0.0,0.0,0.0,0.0,-0.0748210980910553,-0.15791015625,10.133928408281053
1707028616.5714943,0.0,0.0,0.0,0.0,0.0015978966540475428,-0.004793689962142629,0.0023968449810713144,-2.5157958984375,-0.1638916015625,9.6265380859375,0.0,0.0,0.0,0.0,0.0,0.0,0.0,0.0,0.0,0.0,0.0,0.0,0.0,0.0,0.0,0.0,0.0,0.0,0.0,0.0,0.0,0.0,0.0,0.0,0.0,0.0,0.0,0.06279362431237745,-0.1638916015625,9.94964931459124
1707028616.5743203,0.0,0.0,0.0,0.0,0.0010652644360316951,0.004527373853134705,-0.0007989483270237714,-2.672509765625,-0.1375732421875,9.744970703125,0.0,0.0,0.0,0.0,0.0,0.0,0.0,0.0,0.0,0.0,0.0,0.0,0.0,0.0,0.0,0.0,0.0,0.0,0.0,0.0,0.0,0.0,0.0,0.0,0.0,0.0,0.0,-0.057906946231927936,-0.1375732421875,10.104623161588147
1707028616.6096456,0.0,0.0,0.0,0.0,0.001331580545039619,-0.007456851052221865,-0.0018642127630554663,-2.5325439453125,-0.12680664062500002,9.669604492187501,0.0,0.0,0.0,0.0,0.0,0.0,0.0,0.0,0.0,0.0,0.0,0.0,0.0,0.0,0.0,0.0,0.0,0.0,0.0,0.0,0.0,0.0,0.0,0.0,0.0,0.0,0.0,0.05776882016956719,-0.12680664062500002,9.99558365647989
1707028616.6107628,0.0,0.0,0.0,0.0,-0.0010652644360316951,-0.0021305288720633903,-0.004793689962142629,-2.4631591796875,-0.1064697265625,9.6947265625,0.0,0.0,0.0,0.0,0.0,0.0,0.0,0.0,0.0,0.0,0.0,0.0,0.0,0.0,0.0,0.0,0.0,0.0,0.0,0.0,0.0,0.0,0.0,0.0,0.0,0.0,0.0,0.13129227285774903,-0.1064697265625,10.001881753210727
1707028616.6118548,0.0,0.0,0.0,0.0,-0.0005326322180158476,-0.0023968449810713144,0.0005326322180158476,-2.4236816406250004,-0.165087890625,9.619360351562499,0.0,0.0,0.0,0.0,0.0,0.0,0.0,0.0,0.0,0.0,0.0,0.0,0.0,0.0,0.0,0.0,0.0,0.0,0.0,0.0,0.0,0.0,0.0,0.0,0.0,0.0,0.0,0.14990730229997418,-0.165087890625,9.918863547253405
1707028616.6316063,0.0,0.0,0.0,0.0,-0.0007989483270237714,0.005326322180158476,0.0021305288720633903,-2.5875732421875,-0.2428466796875,9.721044921875,0.0,0.0,0.0,0.0,0.0,0.0,0.0,0.0,0.0,0.0,0.0,0.0,0.0,0.0,0.0,0.0,0.0,0.0,0.0,0.0,0.0,0.0,0.0,0.0,0.0,0.0,0.0,0.017936938781041523,-0.2428466796875,10.059519268982172
1707028616.6326911,0.0,0.0,0.0,0.0,0.002663161090079238,-0.00346210941710301,0.0042610577441267805,-2.4248779296875,-0.2308837890625,9.654052734375,0.0,0.0,0.0,0.0,0.0,0.0,0.0,0.0,0.0,0.0,0.0,0.0,0.0,0.0,0.0,0.0,0.0,0.0,0.0,0.0,0.0,0.0,0.0,0.0,0.0,0.0,0.0,0.15773536109066377,-0.2308837890625,9.952682388574477
1707028616.6348057,0.0,0.0,0.0,0.0,0.0018642127630554663,0.005858954398174322,-0.0007989483270237714,-2.4846923828125,-0.1662841796875,9.666015625,0.0,0.0,0.0,0.0,0.0,0.0,0.0,0.0,0.0,0.0,0.0,0.0,0.0,0.0,0.0,0.0,0.0,0.0,0.0,0.0,0.0,0.0,0.0,0.0,0.0,0.0,0.0,0.10305888660906692,-0.1662841796875,9.97972610675471
1707028616.6709235,0.0,0.0,0.0,0.0,0.0042610577441267805,0.006391586616190171,-0.0010652644360316951,-2.52177734375,-0.098095703125,9.640893554687501,0.0,0.0,0.0,0.0,0.0,0.0,0.0,0.0,0.0,0.0,0.0,0.0,0.0,0.0,0.0,0.0,0.0,0.0,0.0,0.0,0.0,0.0,0.0,0.0,0.0,0.0,0.0,0.06073352794350706,-0.098095703125,9.965064021011072
1707028616.671996,0.0,0.0,0.0,0.0,0.0023968449810713144,0.013049489341388264,0.001331580545039619,-2.6521728515625,-0.0227294921875,9.7007080078125,0.0,0.0,0.0,0.0,0.0,0.0,0.0,0.0,0.0,0.0,0.0,0.0,0.0,0.0,0.0,0.0,0.0,0.0,0.0,0.0,0.0,0.0,0.0,0.0,0.0,0.0,0.0,-0.04972546456855964,-0.0227294921875,10.05660400262316
1707028616.6738927,0.0,0.0,0.0,0.0,0.0015978966540475428,0.009054747706269408,0.007989483270237713,-2.682080078125,-0.1112548828125,9.644482421875,0.0,0.0,0.0,0.0,0.0,0.0,0.0,0.0,0.0,0.0,0.0,0.0,0.0,0.0,0.0,0.0,0.0,0.0,0.0,0.0,0.0,0.0,0.0,0.0,0.0,0.0,0.0,-0.09317212509327089,-0.1112548828125,10.010040643595634
1707028616.6903303,0.0,0.0,0.0,0.0,0.0,0.009853696033293181,0.005858954398174322,-2.7430908203125,-0.1758544921875,9.6947265625,0.0,0.0,0.0,0.0,0.0,0.0,0.0,0.0,0.0,0.0,0.0,0.0,0.0,0.0,0.0,0.0,0.0,0.0,0.0,0.0,0.0,0.0,0.0,0.0,0.0,0.0,0.0,-0.13909120867164582,-0.1758544921875,10.074369657988335
1707028616.6914237,0.0,0.0,0.0,0.0,0.0005326322180158476,0.005060006071150552,0.00346210941710301,-2.7861572265625,-0.1878173828125,9.706689453125,0.0,0.0,0.0,0.0,0.0,0.0,0.0,0.0,0.0,0.0,0.0,0.0,0.0,0.0,0.0,0.0,0.0,0.0,0.0,0.0,0.0,0.0,0.0,0.0,0.0,0.0,0.0,-0.17759089366003078,-0.1878173828125,10.097076492976745
1707028616.6925051,0.0,0.0,0.0,0.0,0.0005326322180158476,0.0010652644360316951,-0.0018642127630554663,-2.7789794921875,-0.131591796875,9.717456054687501,0.0,0.0,0.0,0.0,0.0,0.0,0.0,0.0,0.0,0.0,0.0,0.0,0.0,0.0,0.0,0.0,0.0,0.0,0.0,0.0,0.0,0.0,0.0,0.0,0.0,0.0,0.0,-0.16786998753962523,-0.131591796875,10.105617193425887
1707028616.7397852,0.0,0.0,0.0,0.0,0.0021305288720633903,-0.008522115488253561,-0.0005326322180158476,-2.538525390625,-0.0681884765625,9.5547607421875,0.0,0.0,0.0,0.0,0.0,0.0,0.0,0.0,0.0,0.0,0.0,0.0,0.0,0.0,0.0,0.0,0.0,0.0,0.0,0.0,0.0,0.0,0.0,0.0,0.0,0.0,0.0,0.022252767749493252,-0.0681884765625,9.886205986809234
1707028616.74086,0.0,0.0,0.0,0.0,0.0031957933080950856,-0.007989483270237713,-0.0015978966540475428,1.0730712890625,0.8003173828125002,5.6141845703125,0.0,0.0,0.0,0.0,0.0,0.0,0.0,0.0,0.0,0.0,0.0,0.0,0.0,0.0,0.0,0.0,0.0,0.0,0.0,0.0,0.0,0.0,0.0,0.0,0.0,0.0,0.0,2.49025521390249,0.8003173828125002,5.1448206334698074
1707028616.7419295,0.0,0.0,0.0,0.0,-0.0010652644360316951,0.2000033978649508,-0.03621899082507764,-1.4104248046875,0.6113037109375,8.193383789062501,0.0,0.0,0.0,0.0,0.0,0.0,0.0,0.0,0.0,0.0,0.0,0.0,0.0,0.0,0.0,0.0,0.0,0.0,0.0,0.0,0.0,0.0,0.0,0.0,0.0,0.0,0.0,0.75934844059266,0.6113037109375,8.279144037297543
1707028616.7514224,0.0,0.0,0.0,0.0,0.015446334322459582,0.16724651645697616,0.06418218227090965,-5.19189453125,0.22490234375,12.5191650390625,0.0,0.0,0.0,0.0,0.0,0.0,0.0,0.0,0.0,0.0,0.0,0.0,0.0,0.0,0.0,0.0,0.0,0.0,0.0,0.0,0.0,0.0,0.0,0.0,0.0,0.0,0.0,-1.772984557008133,0.22490234375,13.436583935640751
1707028616.752495,0.0,0.0,0.0,0.0,-0.01970739206658636,-0.04234426133225989,0.04767058351241837,-5.0770507812500005,0.153125,10.730712890625,0.0,0.0,0.0,0.0,0.0,0.0,0.0,0.0,0.0,0.0,0.0,0.0,0.0,0.0,0.0,0.0,0.0,0.0,0.0,0.0,0.0,0.0,0.0,0.0,0.0,0.0,0.0,-2.1251751698957504,0.153125,11.679395287157437
1707028616.753554,0.0,0.0,0.0,0.0,-0.01970739206658636,-0.15712650431467506,0.03675162304309349,-5.3533935546875,-1.098193359375,10.71875,0.0,0.0,0.0,0.0,0.0,0.0,0.0,0.0,0.0,0.0,0.0,0.0,0.0,0.0,0.0,0.0,0.0,0.0,0.0,0.0,0.0,0.0,0.0,0.0,0.0,0.0,0.0,-2.395189970242187,-1.098193359375,11.739399010184503
1707028616.7881827,0.0,0.0,0.0,0.0,-0.0037284255261109327,-0.3022687837239935,0.03728425526110933,-0.5538818359375001,-1.5659423828125,6.477905273437501,0.0,0.0,0.0,0.0,0.0,0.0,0.0,0.0,0.0,0.0,0.0,0.0,0.0,0.0,0.0,0.0,0.0,0.0,0.0,0.0,0.0,0.0,0.0,0.0,0.0,0.0,0.0,1.142454924883072,-1.5659423828125,6.400378001682501
1707028616.7892184,0.0,0.0,0.0,0.0,-0.0021305288720633903,-0.04287689355027573,-0.06657902725198095,-1.361376953125,0.074169921875,9.308325195312499,0.0,0.0,0.0,0.0,0.0,0.0,0.0,0.0,0.0,0.0,0.0,0.0,0.0,0.0,0.0,0.0,0.0,0.0,0.0,0.0,0.0,0.0,0.0,0.0,0.0,0.0,0.0,1.0954358337355485,0.074169921875,9.343355151355292
1707028616.7903173,0.0,0.0,0.0,0.0,0.04154531300523612,-0.0167779148674992,-0.014647385995435807,-0.7381103515625,0.2404541015625,9.1875,0.0,0.0,0.0,0.0,0.0,0.0,0.0,0.0,0.0,0.0,0.0,0.0,0.0,0.0,0.0,0.0,0.0,0.0,0.0,0.0,0.0,0.0,0.0,0.0,0.0,0.0,0.0,1.66615598542049,0.2404541015625,9.065257159801437
1707028616.812046,0.0,0.0,0.0,0.0,-0.0005326322180158476,0.0727042977591632,-0.07456851052221866,-2.1616943359375,0.440234375,10.2892822265625,0.0,0.0,0.0,0.0,0.0,0.0,0.0,0.0,0.0,0.0,0.0,0.0,0.0,0.0,0.0,0.0,0.0,0.0,0.0,0.0,0.0,0.0,0.0,0.0,0.0,0.0,0.0,0.5764338370452657,0.440234375,10.498093882766932
1707028616.8131158,0.0,0.0,0.0,0.0,-0.010120012142301104,0.043675841877299504,-0.05858954398174324,-2.1365722656250004,0.1818359375,9.86220703125,0.0,0.0,0.0,0.0,0.0,0.0,0.0,0.0,0.0,0.0,0.0,0.0,0.0,0.0,0.0,0.0,0.0,0.0,0.0,0.0,0.0,0.0,0.0,0.0,0.0,0.0,0.0,0.49010849989360317,0.1818359375,10.079080425902301
1707028616.8141816,0.0,0.0,0.0,0.0,0.014114753777419962,0.011451592687340723,0.035952674716069714,-1.9619140625,-0.1818359375,9.5033203125,0.0,0.0,0.0,0.0,0.0,0.0,0.0,0.0,0.0,0.0,0.0,0.0,0.0,0.0,0.0,0.0,0.0,0.0,0.0,0.0,0.0,0.0,0.0,0.0,0.0,0.0,0.0,0.5658760933551812,-0.1818359375,9.687207440618758
1707028616.8485475,0.0,0.0,0.0,0.0,-0.002663161090079238,0.05912217619975908,0.028762139772855768,-2.7670166015625,-0.4510009765625,9.8442626953125,0.0,0.0,0.0,0.0,0.0,0.0,0.0,0.0,0.0,0.0,0.0,0.0,0.0,0.0,0.0,0.0,0.0,0.0,0.0,0.0,0.0,0.0,0.0,0.0,0.0,0.0,0.0,-0.1234787365921024,-0.4510009765625,10.225000825880329
1707028616.849619,0.0,0.0,0.0,0.0,0.007456851052221865,0.016511598758491276,0.014647385995435807,-2.2310791015625,-0.47373046875,9.3119140625,0.0,0.0,0.0,0.0,0.0,0.0,0.0,0.0,0.0,0.0,0.0,0.0,0.0,0.0,0.0,0.0,0.0,0.0,0.0,0.0,0.0,0.0,0.0,0.0,0.0,0.0,0.0,0.25632759716487685,-0.47373046875,9.572029754850632
1707028616.8506453,0.0,0.0,0.0,0.0,0.00692421883420602,0.060187440635790776,-0.03488741028003802,-3.2192138671875004,0.184228515625,10.046435546875,0.0,0.0,0.0,0.0,0.0,0.0,0.0,0.0,0.0,0.0,0.0,0.0,0.0,0.0,0.0,0.0,0.0,0.0,0.0,0.0,0.0,0.0,0.0,0.0,0.0,0.0,0.0,-0.5078996772361002,0.184228515625,10.537373630941882
1707028616.869707,0.0,0.0,0.0,0.0,0.002663161090079238,0.022903185374681445,-0.01384843766841204,-3.50751953125,0.299072265625,9.725830078125,0.0,0.0,0.0,0.0,0.0,0.0,0.0,0.0,0.0,0.0,0.0,0.0,0.0,0.0,0.0,0.0,0.0,0.0,0.0,0.0,0.0,0.0,0.0,0.0,0.0,0.0,0.0,-0.8693918888984209,0.299072265625,10.30236000701678
1707028616.87096,0.0,0.0,0.0,0.0,-0.010918960469324876,-0.004793689962142629,0.02157160482964183,-3.619970703125,-0.38759765625,9.975854492187501,0.0,0.0,0.0,0.0,0.0,0.0,0.0,0.0,0.0,0.0,0.0,0.0,0.0,0.0,0.0,0.0,0.0,0.0,0.0,0.0,0.0,0.0,0.0,0.0,0.0,0.0,0.0,-0.9132640049892022,-0.38759765625,10.572975437310538
1707028616.8720603,0.0,0.0,0.0,0.0,0.0023968449810713144,-0.05885586009075116,0.029294771990871615,-2.404541015625,-0.4103271484375,9.4135986328125,0.0,0.0,0.0,0.0,0.0,0.0,0.0,0.0,0.0,0.0,0.0,0.0,0.0,0.0,0.0,0.0,0.0,0.0,0.0,0.0,0.0,0.0,0.0,0.0,0.0,0.0,0.0,0.11511335393553734,-0.4103271484375,9.715163695546153
1707028616.9035027,0.0,0.0,0.0,0.0,0.0021305288720633903,-0.022903185374681445,0.0031957933080950856,-2.3172119140625,-0.1244140625,9.663623046875,0.0,0.0,0.0,0.0,0.0,0.0,0.0,0.0,0.0,0.0,0.0,0.0,0.0,0.0,0.0,0.0,0.0,0.0,0.0,0.0,0.0,0.0,0.0,0.0,0.0,0.0,0.0,0.2642072267994946,-0.1244140625,9.934046304908879
1707028616.904627,0.0,0.0,0.0,0.0,-0.0042610577441267805,-0.028762139772855768,-0.02636529479178445,-1.7932373046875,0.0071777343750000005,9.50810546875,0.0,0.0,0.0,0.0,0.0,0.0,0.0,0.0,0.0,0.0,0.0,0.0,0.0,0.0,0.0,0.0,0.0,0.0,0.0,0.0,0.0,0.0,0.0,0.0,0.0,0.0,0.0,0.7300385827344762,0.0071777343750000005,9.64815077118489
1707028616.9058206,0.0,0.0,0.0,0.0,-0.0021305288720633903,0.006391586616190171,-0.017843179303530896,-1.5396240234375,0.20576171875,9.114526367187501,0.0,0.0,0.0,0.0,0.0,0.0,0.0,0.0,0.0,0.0,0.0,0.0,0.0,0.0,0.0,0.0,0.0,0.0,0.0,0.0,0.0,0.0,0.0,0.0,0.0,0.0,0.0,0.8730846400524195,0.20576171875,9.202323415475387
1707028616.9547687,0.0,0.0,0.0,0.0,-0.0015978966540475428,0.055926382891664,0.025566346464760685,-2.4177001953125004,0.0478515625,9.512890625,0.0,0.0,0.0,0.0,0.0,0.0,0.0,0.0,0.0,0.0,0.0,0.0,0.0,0.0,0.0,0.0,0.0,0.0,0.0,0.0,0.0,0.0,0.0,0.0,0.0,0.0,0.0,0.12811454111382004,0.0478515625,9.814476498620913
1707028616.955841,0.0,0.0,0.0,0.0,-0.003994741635118856,0.06684534336098888,0.05352953791059268,-3.4943603515625004,-0.5490966796875001,9.9818359375,0.0,0.0,0.0,0.0,0.0,0.0,0.0,0.0,0.0,0.0,0.0,0.0,0.0,0.0,0.0,0.0,0.0,0.0,0.0,0.0,0.0,0.0,0.0,0.0,0.0,0.0,0.0,-0.7903891969358936,-0.5490966796875001,10.54622623819087
1707028616.9569116,0.0,0.0,0.0,0.0,0.0021305288720633903,0.01384843766841204,0.03302319751698255,-3.5254638671875,-0.6017333984375001,9.9854248046875,0.0,0.0,0.0,0.0,0.0,0.0,0.0,0.0,0.0,0.0,0.0,0.0,0.0,0.0,0.0,0.0,0.0,0.0,0.0,0.0,0.0,0.0,0.0,0.0,0.0,0.0,0.0,-0.819502473882181,-0.6017333984375001,10.557746904724228
1707028616.968017,0.0,0.0,0.0,0.0,0.0021305288720633903,-0.013582121559404116,-0.015446334322459582,-3.311328125,-0.2296875,9.8753662109375,0.0,0.0,0.0,0.0,0.0,0.0,0.0,0.0,0.0,0.0,0.0,0.0,0.0,0.0,0.0,0.0,0.0,0.0,0.0,0.0,0.0,0.0,0.0,0.0,0.0,0.0,0.0,-0.6411701834795243,-0.2296875,10.39599213867339
1707028616.969397,0.0,0.0,0.0,0.0,0.0037284255261109327,-0.046871635185394576,-0.030892668644919165,-2.45478515625,-0.0478515625,9.3633544921875,0.0,0.0,0.0,0.0,0.0,0.0,0.0,0.0,0.0,0.0,0.0,0.0,0.0,0.0,0.0,0.0,0.0,0.0,0.0,0.0,0.0,0.0,0.0,0.0,0.0,0.0,0.0,0.053572335880434974,-0.0478515625,9.679643976641987
1707028616.9704792,0.0,0.0,0.0,0.0,0.0021305288720633903,-0.018642127630554665,-0.026631610900792375,-2.294482421875,0.20576171875,9.438720703125,0.0,0.0,0.0,0.0,0.0,0.0,0.0,0.0,0.0,0.0,0.0,0.0,0.0,0.0,0.0,0.0,0.0,0.0,0.0,0.0,0.0,0.0,0.0,0.0,0.0,0.0,0.0,0.22792329539294798,0.20576171875,9.71092936166828
1707028617.0245955,0.0,0.0,0.0,0.0,0.0018642127630554663,-0.0023968449810713144,0.005326322180158476,-2.52177734375,0.06699218750000001,9.7031005859375,0.0,0.0,0.0,0.0,0.0,0.0,0.0,0.0,0.0,0.0,0.0,0.0,0.0,0.0,0.0,0.0,0.0,0.0,0.0,0.0,0.0,0.0,0.0,0.0,0.0,0.0,0.0,0.07684195122741988,0.06699218750000001,10.025149239128714
1707028617.0256765,0.0,0.0,0.0,0.0,-0.00346210941710301,-0.004527373853134705,0.015446334322459582,-2.5540771484375,-0.4533935546875,9.7964111328125,0.0,0.0,0.0,0.0,0.0,0.0,0.0,0.0,0.0,0.0,0.0,0.0,0.0,0.0,0.0,0.0,0.0,0.0,0.0,0.0,0.0,0.0,0.0,0.0,0.0,0.0,0.0,0.0698064921306667,-0.4533935546875,10.123641055317979
1707028617.026758,0.0,0.0,0.0,0.0,0.0010652644360316951,-0.011717908796348644,-0.0037284255261109327,-2.308837890625,-0.504833984375,9.567919921875,0.0,0.0,0.0,0.0,0.0,0.0,0.0,0.0,0.0,0.0,0.0,0.0,0.0,0.0,0.0,0.0,0.0,0.0,0.0,0.0,0.0,0.0,0.0,0.0,0.0,0.0,0.0,0.24751343187854147,-0.504833984375,9.8394390662089
1707028617.027811,0.0,0.0,0.0,0.0,0.005858954398174322,0.004527373853134705,-0.016511598758491276,-2.4954589843750004,-0.2452392578125,9.614575195312499,0.0,0.0,0.0,0.0,0.0,0.0,0.0,0.0,0.0,0.0,0.0,0.0,0.0,0.0,0.0,0.0,0.0,0.0,0.0,0.0,0.0,0.0,0.0,0.0,0.0,0.0,0.0,0.07933909498854641,-0.2452392578125,9.932828249648873
1707028617.028908,0.0,0.0,0.0,0.0,0.008788431597261486,0.0010652644360316951,-0.009853696033293181,-2.4476074218750004,0.0322998046875,9.62294921875,0.0,0.0,0.0,0.0,0.0,0.0,0.0,0.0,0.0,0.0,0.0,0.0,0.0,0.0,0.0,0.0,0.0,0.0,0.0,0.0,0.0,0.0,0.0,0.0,0.0,0.0,0.0,0.12772693513649092,0.0322998046875,9.9285255495617
1707028617.0299728,0.0,0.0,0.0,0.0,0.00772316716122979,0.00692421883420602,0.006391586616190171,-2.51220703125,0.2093505859375,9.677978515625,0.0,0.0,0.0,0.0,0.0,0.0,0.0,0.0,0.0,0.0,0.0,0.0,0.0,0.0,0.0,0.0,0.0,0.0,0.0,0.0,0.0,0.0,0.0,0.0,0.0,0.0,0.0,0.07958050615009249,0.2093505859375,9.99840583592214
1707028617.0681417,0.0,0.0,0.0,0.0,0.0002663161090079238,0.005060006071150552,0.0167779148674992,-2.6880615234375,-0.0251220703125,9.7437744140625,0.0,0.0,0.0,0.0,0.0,0.0,0.0,0.0,0.0,0.0,0.0,0.0,0.0,0.0,0.0,0.0,0.0,0.0,0.0,0.0,0.0,0.0,0.0,0.0,0.0,0.0,0.0,-0.07323802813218316,-0.0251220703125,10.107494782445324
1707028617.0691998,0.0,0.0,0.0,0.0,-0.00346210941710301,-0.003994741635118856,0.010386328251309028,-2.6091064453125004,-0.2787353515625,9.6755859375,0.0,0.0,0.0,0.0,0.0,0.0,0.0,0.0,0.0,0.0,0.0,0.0,0.0,0.0,0.0,0.0,0.0,0.0,0.0,0.0,0.0,0.0,0.0,0.0,0.0,0.0,0.0,-0.01463333065946415,-0.2787353515625,10.02118683303294
1707028617.0702667,0.0,0.0,0.0,0.0,-0.001331580545039619,-0.005326322180158476,-0.0042610577441267805,-2.4703369140625,-0.1973876953125,9.6576416015625,0.0,0.0,0.0,0.0,0.0,0.0,0.0,0.0,0.0,0.0,0.0,0.0,0.0,0.0,0.0,0.0,0.0,0.0,0.0,0.0,0.0,0.0,0.0,0.0,0.0,0.0,0.0,0.11475626457876542,-0.1973876953125,9.967920383557969
1707028617.0887308,0.0,0.0,0.0,0.0,0.001331580545039619,0.0007989483270237714,-0.005060006071150552,-2.4834960937500004,-0.064599609375,9.749755859375,0.0,0.0,0.0,0.0,0.0,0.0,0.0,0.0,0.0,0.0,0.0,0.0,0.0,0.0,0.0,0.0,0.0,0.0,0.0,0.0,0.0,0.0,0.0,0.0,0.0,0.0,0.0,0.1258987875319808,-0.064599609375,10.060300276849922
1707028617.0921192,0.0,0.0,0.0,0.0,0.0,-0.003994741635118856,-0.00346210941710301,-2.3255859375,-0.0681884765625,9.6719970703125,0.0,0.0,0.0,0.0,0.0,0.0,0.0,0.0,0.0,0.0,0.0,0.0,0.0,0.0,0.0,0.0,0.0,0.0,0.0,0.0,0.0,0.0,0.0,0.0,0.0,0.0,0.0,0.2582872736487998,-0.0681884765625,9.944303141251398
1707028617.0933259,0.0,0.0,0.0,0.0,-0.0005326322180158476,0.004793689962142629,0.0021305288720633903,-2.2681640625000004,-0.07536621093750001,9.5332275390625,0.0,0.0,0.0,0.0,0.0,0.0,0.0,0.0,0.0,0.0,0.0,0.0,0.0,0.0,0.0,0.0,0.0,0.0,0.0,0.0,0.0,0.0,0.0,0.0,0.0,0.0,0.0,0.27781637689327976,-0.07536621093750001,9.795397571649964
1707028617.1215806,0.0,0.0,0.0,0.0,-0.002663161090079238,0.01944107595757844,0.006125270507182248,-2.4775146484375004,-0.14833984375,9.5547607421875,0.0,0.0,0.0,0.0,0.0,0.0,0.0,0.0,0.0,0.0,0.0,0.0,0.0,0.0,0.0,0.0,0.0,0.0,0.0,0.0,0.0,0.0,0.0,0.0,0.0,0.0,0.0,0.08118250090333534,-0.14833984375,9.870407340896165
1707028617.1226506,0.0,0.0,0.0,0.0,-0.001331580545039619,0.0268979270098003,0.010120012142301104,-2.749072265625,-0.28591308593750003,9.646875,0.0,0.0,0.0,0.0,0.0,0.0,0.0,0.0,0.0,0.0,0.0,0.0,0.0,0.0,0.0,0.0,0.0,0.0,0.0,0.0,0.0,0.0,0.0,0.0,0.0,0.0,0.0,-0.15725972832442903,-0.28591308593750003,10.029699146290525
1707028617.1237195,0.0,0.0,0.0,0.0,0.0002663161090079238,0.023435817592697288,0.008255799379245636,-3.031396484375,-0.2524169921875,9.834692382812499,0.0,0.0,0.0,0.0,0.0,0.0,0.0,0.0,0.0,0.0,0.0,0.0,0.0,0.0,0.0,0.0,0.0,0.0,0.0,0.0,0.0,0.0,0.0,0.0,0.0,0.0,0.0,-0.3813191325588421,-0.2524169921875,10.284217745126552
1707028617.1517727,0.0,0.0,0.0,0.0,0.002663161090079238,0.0037284255261109327,0.004793689962142629,-3.0038818359375004,-0.1878173828125,9.7964111328125,0.0,0.0,0.0,0.0,0.0,0.0,0.0,0.0,0.0,0.0,0.0,0.0,0.0,0.0,0.0,0.0,0.0,0.0,0.0,0.0,0.0,0.0,0.0,0.0,0.0,0.0,0.0,-0.3646558542584466,-0.1878173828125,10.240117346755502
1707028617.1533844,0.0,0.0,0.0,0.0,0.0018642127630554663,-0.013049489341388264,-0.0037284255261109327,-2.667724609375,-0.11005859375,9.58466796875,0.0,0.0,0.0,0.0,0.0,0.0,0.0,0.0,0.0,0.0,0.0,0.0,0.0,0.0,0.0,0.0,0.0,0.0,0.0,0.0,0.0,0.0,0.0,0.0,0.0,0.0,0.0,-0.09479517406988514,-0.11005859375,9.948549066955458
1707028617.154448,0.0,0.0,0.0,0.0,0.0015978966540475428,-0.008255799379245636,-0.007190534943213943,-2.5265625,-0.033496093750000004,9.494946289062499,0.0,0.0,0.0,0.0,0.0,0.0,0.0,0.0,0.0,0.0,0.0,0.0,0.0,0.0,0.0,0.0,0.0,0.0,0.0,0.0,0.0,0.0,0.0,0.0,0.0,0.0,0.0,0.018318748845276733,-0.033496093750000004,9.825333964910746
1707028617.1880448,0.0,0.0,0.0,0.0,-0.0005326322180158476,0.003994741635118856,-0.0023968449810713144,-2.6749023437500004,-0.1040771484375,9.6528564453125,0.0,0.0,0.0,0.0,0.0,0.0,0.0,0.0,0.0,0.0,0.0,0.0,0.0,0.0,0.0,0.0,0.0,0.0,0.0,0.0,0.0,0.0,0.0,0.0,0.0,0.0,0.0,-0.08407077371455518,-0.1040771484375,10.016270374117171
1707028617.1890712,0.0,0.0,0.0,0.0,0.0007989483270237714,0.0,0.0037284255261109327,-2.6593505859375,-0.1997802734375,9.692333984375,0.0,0.0,0.0,0.0,0.0,0.0,0.0,0.0,0.0,0.0,0.0,0.0,0.0,0.0,0.0,0.0,0.0,0.0,0.0,0.0,0.0,0.0,0.0,0.0,0.0,0.0,0.0,-0.05882681594727579,-0.1997802734375,10.050374272101621
1707028617.1901133,0.0,0.0,0.0,0.0,0.0015978966540475428,-0.0031957933080950856,0.002929477199087161,-2.6138916015625,-0.246435546875,9.664819335937501,0.0,0.0,0.0,0.0,0.0,0.0,0.0,0.0,0.0,0.0,0.0,0.0,0.0,0.0,0.0,0.0,0.0,0.0,0.0,0.0,0.0,0.0,0.0,0.0,0.0,0.0,0.0,-0.02204326685226743,-0.246435546875,10.012026577842114
1707028617.2193623,0.0,0.0,0.0,0.0,0.0018642127630554663,-0.003994741635118856,-0.0005326322180158476,-2.545703125,-0.2117431640625,9.6097900390625,0.0,0.0,0.0,0.0,0.0,0.0,0.0,0.0,0.0,0.0,0.0,0.0,0.0,0.0,0.0,0.0,0.0,0.0,0.0,0.0,0.0,0.0,0.0,0.0,0.0,0.0,0.0,0.02956961702553329,-0.2117431640625,9.941216959369138
1707028617.22098,0.0,0.0,0.0,0.0,0.0023968449810713144,0.0010652644360316951,-0.0042610577441267805,-2.5672363281250004,-0.0729736328125,9.6181640625,0.0,0.0,0.0,0.0,0.0,0.0,0.0,0.0,0.0,0.0,0.0,0.0,0.0,0.0,0.0,0.0,0.0,0.0,0.0,0.0,0.0,0.0,0.0,0.0,0.0,0.0,0.0,0.010939329273029763,-0.0729736328125,9.954881346790945
1707028617.22205,0.0,0.0,0.0,0.0,0.0031957933080950856,0.0021305288720633903,-0.0007989483270237714,-2.605517578125,-0.002392578125,9.658837890625,0.0,0.0,0.0,0.0,0.0,0.0,0.0,0.0,0.0,0.0,0.0,0.0,0.0,0.0,0.0,0.0,0.0,0.0,0.0,0.0,0.0,0.0,0.0,0.0,0.0,0.0,0.0,-0.015503758959884095,-0.002392578125,10.004080711427196
1707028617.2511473,0.0,0.0,0.0,0.0,0.001331580545039619,0.0031957933080950856,0.003994741635118856,-2.6904541015625,-0.078955078125,9.7138671875,0.0,0.0,0.0,0.0,0.0,0.0,0.0,0.0,0.0,0.0,0.0,0.0,0.0,0.0,0.0,0.0,0.0,0.0,0.0,0.0,0.0,0.0,0.0,0.0,0.0,0.0,0.0,-0.08329343233089714,-0.078955078125,10.079227213091993
1707028617.2523391,0.0,0.0,0.0,0.0,-0.0005326322180158476,-0.002663161090079238,0.0042610577441267805,-2.6449951171875004,-0.1435546875,9.662426757812499,0.0,0.0,0.0,0.0,0.0,0.0,0.0,0.0,0.0,0.0,0.0,0.0,0.0,0.0,0.0,0.0,0.0,0.0,0.0,0.0,0.0,0.0,0.0,0.0,0.0,0.0,0.0,-0.05270543065277877,-0.1435546875,10.017769819556467
1707028617.2534418,0.0,0.0,0.0,0.0,-0.0010652644360316951,-0.004793689962142629,-0.0015978966540475428,-2.6390136718750004,-0.210546875,9.701904296875,0.0,0.0,0.0,0.0,0.0,0.0,0.0,0.0,0.0,0.0,0.0,0.0,0.0,0.0,0.0,0.0,0.0,0.0,0.0,0.0,0.0,0.0,0.0,0.0,0.0,0.0,0.0,-0.03670535259590668,-0.210546875,10.054351936507672
1707028617.2681131,0.0,0.0,0.0,0.0,-0.0002663161090079238,-0.010386328251309028,-0.0042610577441267805,-2.47392578125,-0.1854248046875,9.649267578125,0.0,0.0,0.0,0.0,0.0,0.0,0.0,0.0,0.0,0.0,0.0,0.0,0.0,0.0,0.0,0.0,0.0,0.0,0.0,0.0,0.0,0.0,0.0,0.0,0.0,0.0,0.0,0.10912136809145156,-0.1854248046875,9.960761320923897
1707028617.2691927,0.0,0.0,0.0,0.0,0.0010652644360316951,-0.007456851052221865,-0.002929477199087161,-2.347119140625,-0.1208251953125,9.6564453125,0.0,0.0,0.0,0.0,0.0,0.0,0.0,0.0,0.0,0.0,0.0,0.0,0.0,0.0,0.0,0.0,0.0,0.0,0.0,0.0,0.0,0.0,0.0,0.0,0.0,0.0,0.0,0.2334614384794067,-0.1208251953125,9.934857829397187
1707028617.2702625,0.0,0.0,0.0,0.0,0.0007989483270237714,-0.0031957933080950856,0.0018642127630554663,-2.289697265625,-0.10048828125,9.6121826171875,0.0,0.0,0.0,0.0,0.0,0.0,0.0,0.0,0.0,0.0,0.0,0.0,0.0,0.0,0.0,0.0,0.0,0.0,0.0,0.0,0.0,0.0,0.0,0.0,0.0,0.0,0.0,0.2774629540206006,-0.10048828125,9.877235571936021
1707028617.3270648,0.0,0.0,0.0,0.0,0.0,0.005858954398174322,0.005858954398174322,-2.332763671875,-0.14833984375,9.6576416015625,0.0,0.0,0.0,0.0,0.0,0.0,0.0,0.0,0.0,0.0,0.0,0.0,0.0,0.0,0.0,0.0,0.0,0.0,0.0,0.0,0.0,0.0,0.0,0.0,0.0,0.0,0.0,0.24763703541586102,-0.14833984375,9.932295985910853
1707028617.328163,0.0,0.0,0.0,0.0,0.0,0.014114753777419962,0.0055926382891664,-2.485888671875,-0.169873046875,9.6528564453125,0.0,0.0,0.0,0.0,0.0,0.0,0.0,0.0,0.0,0.0,0.0,0.0,0.0,0.0,0.0,0.0,0.0,0.0,0.0,0.0,0.0,0.0,0.0,0.0,0.0,0.0,0.0,0.0984958505659761,-0.169873046875,9.967325549523744
1707028617.3292923,0.0,0.0,0.0,0.0,0.0007989483270237714,0.014913702104443732,0.004527373853134705,-2.6760986328125,-0.1818359375,9.71865234375,0.0,0.0,0.0,0.0,0.0,0.0,0.0,0.0,0.0,0.0,0.0,0.0,0.0,0.0,0.0,0.0,0.0,0.0,0.0,0.0,0.0,0.0,0.0,0.0,0.0,0.0,0.0,-0.06818850328190917,-0.1818359375,10.08013182449706
1707028617.3303704,0.0,0.0,0.0,0.0,0.0007989483270237714,0.00692421883420602,0.001331580545039619,-2.6988281250000004,-0.15791015625,9.67080078125,0.0,0.0,0.0,0.0,0.0,0.0,0.0,0.0,0.0,0.0,0.0,0.0,0.0,0.0,0.0,0.0,0.0,0.0,0.0,0.0,0.0,0.0,0.0,0.0,0.0,0.0,0.0,-0.10253381242790471,-0.15791015625,10.039798195991073
1707028617.3315175,0.0,0.0,0.0,0.0,0.0018642127630554663,0.0010652644360316951,-0.0007989483270237714,-2.60791015625,-0.1375732421875,9.662426757812499,0.0,0.0,0.0,0.0,0.0,0.0,0.0,0.0,0.0,0.0,0.0,0.0,0.0,0.0,0.0,0.0,0.0,0.0,0.0,0.0,0.0,0.0,0.0,0.0,0.0,0.0,0.0,-0.01688539677495271,-0.1375732421875,10.008166721060286
1707028617.3325927,0.0,0.0,0.0,0.0,0.0010652644360316951,0.0021305288720633903,-0.002663161090079238,-2.5612548828125004,-0.1303955078125,9.62294921875,0.0,0.0,0.0,0.0,0.0,0.0,0.0,0.0,0.0,0.0,0.0,0.0,0.0,0.0,0.0,0.0,0.0,0.0,0.0,0.0,0.0,0.0,0.0,0.0,0.0,0.0,0.0,0.01795586357541179,-0.1303955078125,9.957954399791925
1707028617.3690078,0.0,0.0,0.0,0.0,0.0007989483270237714,0.007456851052221865,-0.001331580545039619,-2.622265625,-0.1088623046875,9.643286132812499,0.0,0.0,0.0,0.0,0.0,0.0,0.0,0.0,0.0,0.0,0.0,0.0,0.0,0.0,0.0,0.0,0.0,0.0,0.0,0.0,0.0,0.0,0.0,0.0,0.0,0.0,0.0,-0.03570765427407396,-0.1088623046875,9.993396290089606
1707028617.3700843,0.0,0.0,0.0,0.0,0.0005326322180158476,0.0055926382891664,0.0015978966540475428,-2.65576171875,-0.16867675781250002,9.6289306640625,0.0,0.0,0.0,0.0,0.0,0.0,0.0,0.0,0.0,0.0,0.0,0.0,0.0,0.0,0.0,0.0,0.0,0.0,0.0,0.0,0.0,0.0,0.0,0.0,0.0,0.0,0.0,-0.07177856171063146,-0.16867675781250002,9.988204236907643
1707028617.371319,0.0,0.0,0.0,0.0,0.0002663161090079238,0.004793689962142629,0.003994741635118856,-2.6749023437500004,-0.17465820312500002,9.640893554687501,0.0,0.0,0.0,0.0,0.0,0.0,0.0,0.0,0.0,0.0,0.0,0.0,0.0,0.0,0.0,0.0,0.0,0.0,0.0,0.0,0.0,0.0,0.0,0.0,0.0,0.0,0.0,-0.08716854742299951,-0.17465820312500002,10.004715524479165
1707028617.3885539,0.0,0.0,0.0,0.0,0.0015978966540475428,0.0018642127630554663,0.002929477199087161,-2.660546875,-0.15791015625,9.6361083984375,0.0,0.0,0.0,0.0,0.0,0.0,0.0,0.0,0.0,0.0,0.0,0.0,0.0,0.0,0.0,0.0,0.0,0.0,0.0,0.0,0.0,0.0,0.0,0.0,0.0,0.0,0.0,-0.0745418373407678,-0.15791015625,9.996376256173827
1707028617.3896098,0.0,0.0,0.0,0.0,0.0021305288720633903,0.001331580545039619,0.0010652644360316951,-2.6306396484375,-0.117236328125,9.63251953125,0.0,0.0,0.0,0.0,0.0,0.0,0.0,0.0,0.0,0.0,0.0,0.0,0.0,0.0,0.0,0.0,0.0,0.0,0.0,0.0,0.0,0.0,0.0,0.0,0.0,0.0,0.0,-0.046584045358280424,-0.117236328125,9.985165367011312
1707028617.3906827,0.0,0.0,0.0,0.0,0.0018642127630554663,0.001331580545039619,0.001331580545039619,-2.6330322265625004,-0.0681884765625,9.6361083984375,0.0,0.0,0.0,0.0,0.0,0.0,0.0,0.0,0.0,0.0,0.0,0.0,0.0,0.0,0.0,0.0,0.0,0.0,0.0,0.0,0.0,0.0,0.0,0.0,0.0,0.0,0.0,-0.04796568317334904,-0.0681884765625,9.989251376644404
1707028617.4443796,0.0,0.0,0.0,0.0,0.0010652644360316951,0.0021305288720633903,0.002929477199087161,-2.6808837890625004,-0.107666015625,9.663623046875,0.0,0.0,0.0,0.0,0.0,0.0,0.0,0.0,0.0,0.0,0.0,0.0,0.0,0.0,0.0,0.0,0.0,0.0,0.0,0.0,0.0,0.0,0.0,0.0,0.0,0.0,0.0,-0.08706020219595922,-0.107666015625,10.028218625645602
1707028617.4454474,0.0,0.0,0.0,0.0,-0.0007989483270237714,-0.0018642127630554663,0.0015978966540475428,-2.6521728515625,-0.169873046875,9.644482421875,0.0,0.0,0.0,0.0,0.0,0.0,0.0,0.0,0.0,0.0,0.0,0.0,0.0,0.0,0.0,0.0,0.0,0.0,0.0,0.0,0.0,0.0,0.0,0.0,0.0,0.0,0.0,-0.0642850009982503,-0.169873046875,10.002296209324522
1707028617.4465067,0.0,0.0,0.0,0.0,-0.0005326322180158476,-0.0031957933080950856,-0.0015978966540475428,-2.643798828125,-0.1949951171875,9.667211914062499,0.0,0.0,0.0,0.0,0.0,0.0,0.0,0.0,0.0,0.0,0.0,0.0,0.0,0.0,0.0,0.0,0.0,0.0,0.0,0.0,0.0,0.0,0.0,0.0,0.0,0.0,0.0,-0.05031083620559951,-0.1949951171875,10.022081982040826
1707028617.4486735,0.0,0.0,0.0,0.0,0.0007989483270237714,-0.005060006071150552,-0.002929477199087161,-2.5564697265625,-0.1878173828125,9.639697265625,0.0,0.0,0.0,0.0,0.0,0.0,0.0,0.0,0.0,0.0,0.0,0.0,0.0,0.0,0.0,0.0,0.0,0.0,0.0,0.0,0.0,0.0,0.0,0.0,0.0,0.0,0.0,0.026914686622438566,-0.1878173828125,9.97289207980176
1707028617.4497168,0.0,0.0,0.0,0.0,0.0015978966540475428,-0.00346210941710301,-0.001331580545039619,-2.5134033203125004,-0.1591064453125,9.6528564453125,0.0,0.0,0.0,0.0,0.0,0.0,0.0,0.0,0.0,0.0,0.0,0.0,0.0,0.0,0.0,0.0,0.0,0.0,0.0,0.0,0.0,0.0,0.0,0.0,0.0,0.0,0.0,0.07191969639855689,-0.1591064453125,9.974450429053167
1707028617.4507847,0.0,0.0,0.0,0.0,0.0023968449810713144,-0.0037284255261109327,0.0005326322180158476,-2.49306640625,-0.1256103515625,9.646875,0.0,0.0,0.0,0.0,0.0,0.0,0.0,0.0,0.0,0.0,0.0,0.0,0.0,0.0,0.0,0.0,0.0,0.0,0.0,0.0,0.0,0.0,0.0,0.0,0.0,0.0,0.0,0.09001405392894934,-0.1256103515625,9.963406788929806
1707028617.4848025,0.0,0.0,0.0,0.0,0.0015978966540475428,-0.0010652644360316951,0.0023968449810713144,-2.49306640625,-0.145947265625,9.668408203125,0.0,0.0,0.0,0.0,0.0,0.0,0.0,0.0,0.0,0.0,0.0,0.0,0.0,0.0,0.0,0.0,0.0,0.0,0.0,0.0,0.0,0.0,0.0,0.0,0.0,0.0,0.0,0.09559004660415038,-0.145947265625,9.984205518278221
1707028617.48587,0.0,0.0,0.0,0.0,0.0007989483270237714,0.0005326322180158476,0.0023968449810713144,-2.48828125,-0.15073242187500002,9.6576416015625,0.0,0.0,0.0,0.0,0.0,0.0,0.0,0.0,0.0,0.0,0.0,0.0,0.0,0.0,0.0,0.0,0.0,0.0,0.0,0.0,0.0,0.0,0.0,0.0,0.0,0.0,0.0,0.09742399012175262,-0.15073242187500002,9.972567044120636
1707028617.4872231,0.0,0.0,0.0,0.0,0.0010652644360316951,0.0018642127630554663,0.0002663161090079238,-2.4918701171875,-0.13876953125000002,9.68037109375,0.0,0.0,0.0,0.0,0.0,0.0,0.0,0.0,0.0,0.0,0.0,0.0,0.0,0.0,0.0,0.0,0.0,0.0,0.0,0.0,0.0,0.0,0.0,0.0,0.0,0.0,0.0,0.09984330527639562,-0.13876953125000002,9.995450590545385
1707028617.5087378,0.0,0.0,0.0,0.0,0.0018642127630554663,0.0018642127630554663,-0.0007989483270237714,-2.51220703125,-0.1303955078125,9.649267578125,0.0,0.0,0.0,0.0,0.0,0.0,0.0,0.0,0.0,0.0,0.0,0.0,0.0,0.0,0.0,0.0,0.0,0.0,0.0,0.0,0.0,0.0,0.0,0.0,0.0,0.0,0.0,0.07214584924982503,-0.1303955078125,9.97067419679092
1707028617.5098627,0.0,0.0,0.0,0.0,0.0018642127630554663,0.0023968449810713144,-0.0023968449810713144,-2.500244140625,-0.10048828125,9.6576416015625,0.0,0.0,0.0,0.0,0.0,0.0,0.0,0.0,0.0,0.0,0.0,0.0,0.0,0.0,0.0,0.0,0.0,0.0,0.0,0.0,0.0,0.0,0.0,0.0,0.0,0.0,0.0,0.08586914048374439,-0.10048828125,9.975664817829081
1707028617.5109386,0.0,0.0,0.0,0.0,0.0002663161090079238,0.005326322180158476,-0.0007989483270237714,-2.5397216796875,-0.117236328125,9.677978515625,0.0,0.0,0.0,0.0,0.0,0.0,0.0,0.0,0.0,0.0,0.0,0.0,0.0,0.0,0.0,0.0,0.0,0.0,0.0,0.0,0.0,0.0,0.0,0.0,0.0,0.0,0.0,0.05300435198267328,-0.117236328125,10.005530715451563
1707028617.5490508,0.0,0.0,0.0,0.0,-0.0002663161090079238,0.006657902725198095,0.0005326322180158476,-2.5421142578125,-0.14833984375,9.666015625,0.0,0.0,0.0,0.0,0.0,0.0,0.0,0.0,0.0,0.0,0.0,0.0,0.0,0.0,0.0,0.0,0.0,0.0,0.0,0.0,0.0,0.0,0.0,0.0,0.0,0.0,0.0,0.04759560834662668,-0.14833984375,9.994595420555244
1707028617.5501182,0.0,0.0,0.0,0.0,0.0,0.007190534943213943,0.0015978966540475428,-2.622265625,-0.155517578125,9.6839599609375,0.0,0.0,0.0,0.0,0.0,0.0,0.0,0.0,0.0,0.0,0.0,0.0,0.0,0.0,0.0,0.0,0.0,0.0,0.0,0.0,0.0,0.0,0.0,0.0,0.0,0.0,0.0,-0.02517522366536129,-0.155517578125,10.032682778858836
1707028617.5511835,0.0,0.0,0.0,0.0,0.0005326322180158476,0.0037284255261109327,0.0023968449810713144,-2.60791015625,-0.16748046875,9.643286132812499,0.0,0.0,0.0,0.0,0.0,0.0,0.0,0.0,0.0,0.0,0.0,0.0,0.0,0.0,0.0,0.0,0.0,0.0,0.0,0.0,0.0,0.0,0.0,0.0,0.0,0.0,0.0,-0.021841834708464347,-0.16748046875,9.989678961639472
1707028617.5710907,0.0,0.0,0.0,0.0,0.0010652644360316951,0.004527373853134705,0.002663161090079238,-2.6091064453125004,-0.12919921875,9.649267578125,0.0,0.0,0.0,0.0,0.0,0.0,0.0,0.0,0.0,0.0,0.0,0.0,0.0,0.0,0.0,0.0,0.0,0.0,0.0,0.0,0.0,0.0,0.0,0.0,0.0,0.0,0.0,-0.02144843281804265,-0.12919921875,9.995766163829323
1707028617.5722375,0.0,0.0,0.0,0.0,0.0007989483270237714,0.0042610577441267805,0.0023968449810713144,-2.6282470703125,-0.112451171875,9.625341796875,0.0,0.0,0.0,0.0,0.0,0.0,0.0,0.0,0.0,0.0,0.0,0.0,0.0,0.0,0.0,0.0,0.0,0.0,0.0,0.0,0.0,0.0,0.0,0.0,0.0,0.0,0.0,-0.04613173965574502,-0.112451171875,9.977612902486818
1707028617.5733483,0.0,0.0,0.0,0.0,0.0,0.003994741635118856,0.0023968449810713144,-2.6354248046875,-0.1614990234375,9.6480712890625,0.0,0.0,0.0,0.0,0.0,0.0,0.0,0.0,0.0,0.0,0.0,0.0,0.0,0.0,0.0,0.0,0.0,0.0,0.0,0.0,0.0,0.0,0.0,0.0,0.0,0.0,0.0,-0.0471788793925052,-0.1614990234375,10.0014257810241
1707028617.6148407,0.0,0.0,0.0,0.0,0.0005326322180158476,0.003994741635118856,0.0021305288720633903,-2.6749023437500004,-0.14833984375,9.6504638671875,0.0,0.0,0.0,0.0,0.0,0.0,0.0,0.0,0.0,0.0,0.0,0.0,0.0,0.0,0.0,0.0,0.0,0.0,0.0,0.0,0.0,0.0,0.0,0.0,0.0,0.0,0.0,-0.08469032845624369,-0.14833984375,10.01395940418957
1707028617.6159325,0.0,0.0,0.0,0.0,0.0002663161090079238,0.002663161090079238,0.0007989483270237714,-2.677294921875,-0.169873046875,9.654052734375,0.0,0.0,0.0,0.0,0.0,0.0,0.0,0.0,0.0,0.0,0.0,0.0,0.0,0.0,0.0,0.0,0.0,0.0,0.0,0.0,0.0,0.0,0.0,0.0,0.0,0.0,0.0,-0.0860719662713123,-0.169873046875,10.018045413822662
1707028617.6170547,0.0,0.0,0.0,0.0,0.0007989483270237714,0.001331580545039619,0.0005326322180158476,-2.70361328125,-0.1662841796875,9.6743896484375,0.0,0.0,0.0,0.0,0.0,0.0,0.0,0.0,0.0,0.0,0.0,0.0,0.0,0.0,0.0,0.0,0.0,0.0,0.0,0.0,0.0,0.0,0.0,0.0,0.0,0.0,0.0,-0.10622642017057382,-0.1662841796875,10.044503760365854
1707028617.6302369,0.0,0.0,0.0,0.0,0.0005326322180158476,-0.0010652644360316951,-0.0010652644360316951,-2.6449951171875004,-0.1614990234375,9.654052734375,0.0,0.0,0.0,0.0,0.0,0.0,0.0,0.0,0.0,0.0,0.0,0.0,0.0,0.0,0.0,0.0,0.0,0.0,0.0,0.0,0.0,0.0,0.0,0.0,0.0,0.0,0.0,-0.05487387224868989,-0.1614990234375,10.009681424809862
1707028617.6314328,0.0,0.0,0.0,0.0,0.001331580545039619,-0.002663161090079238,-0.001331580545039619,-2.605517578125,-0.1423583984375,9.649267578125,0.0,0.0,0.0,0.0,0.0,0.0,0.0,0.0,0.0,0.0,0.0,0.0,0.0,0.0,0.0,0.0,0.0,0.0,0.0,0.0,0.0,0.0,0.0,0.0,0.0,0.0,0.0,-0.017981977926639914,-0.1423583984375,9.99483683171679
1707028617.6324844,0.0,0.0,0.0,0.0,0.001331580545039619,-0.001331580545039619,-0.0007989483270237714,-2.6019287109375,-0.141162109375,9.6480712890625,0.0,0.0,0.0,0.0,0.0,0.0,0.0,0.0,0.0,0.0,0.0,0.0,0.0,0.0,0.0,0.0,0.0,0.0,0.0,0.0,0.0,0.0,0.0,0.0,0.0,0.0,0.0,-0.014825300406081876,-0.141162109375,9.992752014640455
1707028617.668986,0.0,0.0,0.0,0.0,0.0021305288720633903,-0.0007989483270237714,-0.0002663161090079238,-2.5791992187500004,-0.1375732421875,9.643286132812499,0.0,0.0,0.0,0.0,0.0,0.0,0.0,0.0,0.0,0.0,0.0,0.0,0.0,0.0,0.0,0.0,0.0,0.0,0.0,0.0,0.0,0.0,0.0,0.0,0.0,0.0,0.0,0.005889804422755329,-0.1375732421875,9.982244304739204
1707028617.6700928,0.0,0.0,0.0,0.0,0.0010652644360316951,0.0,-0.0007989483270237714,-2.5935546875,-0.1423583984375,9.6719970703125,0.0,0.0,0.0,0.0,0.0,0.0,0.0,0.0,0.0,0.0,0.0,0.0,0.0,0.0,0.0,0.0,0.0,0.0,0.0,0.0,0.0,0.0,0.0,0.0,0.0,0.0,0.0,-0.0005413582425863872,-0.1423583984375,10.01369327232056
1707028617.6711724,0.0,0.0,0.0,0.0,0.0018642127630554663,-0.0005326322180158476,0.0007989483270237714,-2.562451171875,-0.1471435546875,9.692333984375,0.0,0.0,0.0,0.0,0.0,0.0,0.0,0.0,0.0,0.0,0.0,0.0,0.0,0.0,0.0,0.0,0.0,0.0,0.0,0.0,0.0,0.0,0.0,0.0,0.0,0.0,0.0,0.034767466120591894,-0.1471435546875,10.025282305063218
1707028617.7087696,0.0,0.0,0.0,0.0,0.001331580545039619,-0.001331580545039619,0.0002663161090079238,-2.533740234375,-0.145947265625,9.6815673828125,0.0,0.0,0.0,0.0,0.0,0.0,0.0,0.0,0.0,0.0,0.0,0.0,0.0,0.0,0.0,0.0,0.0,0.0,0.0,0.0,0.0,0.0,0.0,0.0,0.0,0.0,0.0,0.05971110891421061,-0.145947265625,10.007448283488742
1707028617.7098327,0.0,0.0,0.0,0.0,0.0007989483270237714,-0.0015978966540475428,-0.0002663161090079238,-2.5205810546875,-0.13278808593750002,9.6504638671875,0.0,0.0,0.0,0.0,0.0,0.0,0.0,0.0,0.0,0.0,0.0,0.0,0.0,0.0,0.0,0.0,0.0,0.0,0.0,0.0,0.0,0.0,0.0,0.0,0.0,0.0,0.0,0.06436723187406379,-0.13278808593750002,9.973998123350633
1707028617.7108989,0.0,0.0,0.0,0.0,0.0002663161090079238,0.0,0.0005326322180158476,-2.533740234375,-0.141162109375,9.664819335937501,0.0,0.0,0.0,0.0,0.0,0.0,0.0,0.0,0.0,0.0,0.0,0.0,0.0,0.0,0.0,0.0,0.0,0.0,0.0,0.0,0.0,0.0,0.0,0.0,0.0,0.0,0.0,0.05537422572238837,-0.141162109375,9.991271493995534
1707028617.7295494,0.0,0.0,0.0,0.0,0.0007989483270237714,0.0002663161090079238,0.0002663161090079238,-2.524169921875,-0.1435546875,9.649267578125,0.0,0.0,0.0,0.0,0.0,0.0,0.0,0.0,0.0,0.0,0.0,0.0,0.0,0.0,0.0,0.0,0.0,0.0,0.0,0.0,0.0,0.0,0.0,0.0,0.0,0.0,0.0,0.0605909996118168,-0.1435546875,9.973771970499365
1707028617.73058,0.0,0.0,0.0,0.0,0.0005326322180158476,0.002663161090079238,0.0021305288720633903,-2.548095703125,-0.153125,9.667211914062499,0.0,0.0,0.0,0.0,0.0,0.0,0.0,0.0,0.0,0.0,0.0,0.0,0.0,0.0,0.0,0.0,0.0,0.0,0.0,0.0,0.0,0.0,0.0,0.0,0.0,0.0,0.0,0.04212796089846682,-0.153125,9.997299792373266
1707028617.7316587,0.0,0.0,0.0,0.0,0.0005326322180158476,0.00346210941710301,0.003994741635118856,-2.5684326171875,-0.14833984375,9.6600341796875,0.0,0.0,0.0,0.0,0.0,0.0,0.0,0.0,0.0,0.0,0.0,0.0,0.0,0.0,0.0,0.0,0.0,0.0,0.0,0.0,0.0,0.0,0.0,0.0,0.0,0.0,0.0,0.020626052288786667,-0.14833984375,9.995633097894817
1707028617.769389,0.0,0.0,0.0,0.0,0.0010652644360316951,0.005060006071150552,0.0031957933080950856,-2.605517578125,-0.14475097656250002,9.70908203125,0.0,0.0,0.0,0.0,0.0,0.0,0.0,0.0,0.0,0.0,0.0,0.0,0.0,0.0,0.0,0.0,0.0,0.0,0.0,0.0,0.0,0.0,0.0,0.0,0.0,0.0,0.0,-0.002493109384415604,-0.14475097656250002,10.052611079906832
1707028617.7704606,0.0,0.0,0.0,0.0,0.001331580545039619,0.0023968449810713144,0.001331580545039619,-2.5660400390625,-0.15073242187500002,9.6576416015625,0.0,0.0,0.0,0.0,0.0,0.0,0.0,0.0,0.0,0.0,0.0,0.0,0.0,0.0,0.0,0.0,0.0,0.0,0.0,0.0,0.0,0.0,0.0,0.0,0.0,0.0,0.0,0.02231746747469865,-0.15073242187500002,9.992702573225527
1707028617.7715495,0.0,0.0,0.0,0.0,0.0007989483270237714,0.0021305288720633903,0.0007989483270237714,-2.5445068359375,-0.1495361328125,9.630126953125,0.0,0.0,0.0,0.0,0.0,0.0,0.0,0.0,0.0,0.0,0.0,0.0,0.0,0.0,0.0,0.0,0.0,0.0,0.0,0.0,0.0,0.0,0.0,0.0,0.0,0.0,0.0,0.03599131729369098,-0.1495361328125,9.960550426382907
1707028617.7999663,0.0,0.0,0.0,0.0,0.0010652644360316951,0.005060006071150552,0.001331580545039619,-2.6114990234375,-0.155517578125,9.66123046875,0.0,0.0,0.0,0.0,0.0,0.0,0.0,0.0,0.0,0.0,0.0,0.0,0.0,0.0,0.0,0.0,0.0,0.0,0.0,0.0,0.0,0.0,0.0,0.0,0.0,0.0,0.0,-0.020661629037199702,-0.155517578125,10.00794056820902
1707028617.801044,0.0,0.0,0.0,0.0,0.0005326322180158476,0.005060006071150552,0.0015978966540475428,-2.6390136718750004,-0.155517578125,9.6839599609375,0.0,0.0,0.0,0.0,0.0,0.0,0.0,0.0,0.0,0.0,0.0,0.0,0.0,0.0,0.0,0.0,0.0,0.0,0.0,0.0,0.0,0.0,0.0,0.0,0.0,0.0,0.0,-0.04135201315857362,-0.155517578125,10.037019662050659
1707028617.8021133,0.0,0.0,0.0,0.0,0.0007989483270237714,0.0037284255261109327,0.0021305288720633903,-2.660546875,-0.172265625,9.6791748046875,0.0,0.0,0.0,0.0,0.0,0.0,0.0,0.0,0.0,0.0,0.0,0.0,0.0,0.0,0.0,0.0,0.0,0.0,0.0,0.0,0.0,0.0,0.0,0.0,0.0,0.0,0.0,-0.06338985199036618,-0.172265625,10.037973714870658
1707028617.8193686,0.0,0.0,0.0,0.0,0.0018642127630554663,0.00346210941710301,-0.0005326322180158476,-2.648583984375,-0.1614990234375,9.6097900390625,0.0,0.0,0.0,0.0,0.0,0.0,0.0,0.0,0.0,0.0,0.0,0.0,0.0,0.0,0.0,0.0,0.0,0.0,0.0,0.0,0.0,0.0,0.0,0.0,0.0,0.0,0.0,-0.06980208986133807,-0.1614990234375,9.967857813261762
1707028617.8206928,0.0,0.0,0.0,0.0,0.001331580545039619,0.003994741635118856,0.0002663161090079238,-2.6892578125,-0.1471435546875,9.644482421875,0.0,0.0,0.0,0.0,0.0,0.0,0.0,0.0,0.0,0.0,0.0,0.0,0.0,0.0,0.0,0.0,0.0,0.0,0.0,0.0,0.0,0.0,0.0,0.0,0.0,0.0,0.0,-0.10010503487607636,-0.1471435546875,10.0118993078207
1707028617.821787,0.0,0.0,0.0,0.0,0.0021305288720633903,0.0023968449810713144,0.0005326322180158476,-2.7191650390625,-0.1375732421875,9.6767822265625,0.0,0.0,0.0,0.0,0.0,0.0,0.0,0.0,0.0,0.0,0.0,0.0,0.0,0.0,0.0,0.0,0.0,0.0,0.0,0.0,0.0,0.0,0.0,0.0,0.0,0.0,0.0,-0.12062816995829628,-0.1375732421875,10.050841836114435
1707028617.851326,0.0,0.0,0.0,0.0,0.0010652644360316951,0.0007989483270237714,0.0,-2.65576171875,-0.1160400390625,9.688745117187501,0.0,0.0,0.0,0.0,0.0,0.0,0.0,0.0,0.0,0.0,0.0,0.0,0.0,0.0,0.0,0.0,0.0,0.0,0.0,0.0,0.0,0.0,0.0,0.0,0.0,0.0,0.0,-0.05628969316840671,-0.1160400390625,10.045978485097686
1707028617.85361,0.0,0.0,0.0,0.0,0.001331580545039619,-0.0023968449810713144,0.0018642127630554663,-2.610302734375,-0.1471435546875,9.6241455078125,0.0,0.0,0.0,0.0,0.0,0.0,0.0,0.0,0.0,0.0,0.0,0.0,0.0,0.0,0.0,0.0,0.0,0.0,0.0,0.0,0.0,0.0,0.0,0.0,0.0,0.0,0.0,-0.029109242569577365,-0.1471435546875,9.97181075696035
1707028617.8546827,0.0,0.0,0.0,0.0,0.0007989483270237714,-0.0007989483270237714,-0.0005326322180158476,-2.61748046875,-0.1256103515625,9.6767822265625,0.0,0.0,0.0,0.0,0.0,0.0,0.0,0.0,0.0,0.0,0.0,0.0,0.0,0.0,0.0,0.0,0.0,0.0,0.0,0.0,0.0,0.0,0.0,0.0,0.0,0.0,0.0,-0.022411948035225837,-0.1256103515625,10.024510759592653
1707028617.8896728,0.0,0.0,0.0,0.0,0.0005326322180158476,-0.001331580545039619,0.0015978966540475428,-2.605517578125,-0.12680664062500002,9.6743896484375,0.0,0.0,0.0,0.0,0.0,0.0,0.0,0.0,0.0,0.0,0.0,0.0,0.0,0.0,0.0,0.0,0.0,0.0,0.0,0.0,0.0,0.0,0.0,0.0,0.0,0.0,0.0,-0.011476653138905668,-0.12680664062500002,10.019102015956609
1707028617.8930075,0.0,0.0,0.0,0.0,0.0005326322180158476,-0.001331580545039619,0.0007989483270237714,-2.5744140625,-0.12919921875,9.6743896484375,0.0,0.0,0.0,0.0,0.0,0.0,0.0,0.0,0.0,0.0,0.0,0.0,0.0,0.0,0.0,0.0,0.0,0.0,0.0,0.0,0.0,0.0,0.0,0.0,0.0,0.0,0.0,0.018565955919916277,-0.12919921875,10.011047804314652
1707028617.8940823,0.0,0.0,0.0,0.0,0.0007989483270237714,-0.0005326322180158476,0.0010652644360316951,-2.5421142578125,-0.1052734375,9.6755859375,0.0,0.0,0.0,0.0,0.0,0.0,0.0,0.0,0.0,0.0,0.0,0.0,0.0,0.0,0.0,0.0,0.0,0.0,0.0,0.0,0.0,0.0,0.0,0.0,0.0,0.0,0.0,0.0500738273133825,-0.1052734375,10.00383930026565
