timestamp,orien_x,orien_y,orien_z,orien_w,ang_vel_x,ang_vel_y,ang_vel_z,lin_acc_x,lin_acc_y,lin_acc_z,orien_cov_01,orien_cov_02,orien_cov_03,orien_cov_04,orien_cov_05,orien_cov_06,orien_cov_07,orien_cov_08,orien_cov_09,ang_vel_cov_01,ang_vel_cov_02,ang_vel_cov_03,ang_vel_cov_04,ang_vel_cov_05,ang_vel_cov_06,ang_vel_cov_07,ang_vel_cov_08,ang_vel_cov_09,lin_acc_cov_01,lin_acc_cov_02,lin_acc_cov_03,lin_acc_cov_04,lin_acc_cov_05,lin_acc_cov_06,lin_acc_cov_07,lin_acc_cov_08,lin_acc_cov_09,lin_acc_x_calib,lin_acc_y_calib,lin_acc_z_calib
1707029424.736676,0.0,0.0,0.0,0.0,-0.007989483270237713,-0.17390441918217425,0.04207794522325197,-4.0590087890625,0.8972167968750001,10.5428955078125,0.0,0.0,0.0,0.0,0.0,0.0,0.0,0.0,0.0,0.0,0.0,0.0,0.0,0.0,0.0,0.0,0.0,0.0,0.0,0.0,0.0,0.0,0.0,0.0,0.0,0.0,0.0,-1.2584834400993978,0.8972167968750001,11.226950497322735
1707029424.7377613,0.0,0.0,0.0,0.0,-0.02370213370170522,-0.2082591972441964,0.0346210941710301,-3.036181640625,-0.09091796875,10.285693359375,0.0,0.0,0.0,0.0,0.0,0.0,0.0,0.0,0.0,0.0,0.0,0.0,0.0,0.0,0.0,0.0,0.0,0.0,0.0,0.0,0.0,0.0,0.0,0.0,0.0,0.0,0.0,-0.334055367981811,-0.09091796875,10.719248753951081
1707029424.7388523,0.0,0.0,0.0,0.0,-0.024501082028728992,-0.2122539388793153,0.01944107595757844,-2.0731689453125,-0.456982421875,9.7772705078125,0.0,0.0,0.0,0.0,0.0,0.0,0.0,0.0,0.0,0.0,0.0,0.0,0.0,0.0,0.0,0.0,0.0,0.0,0.0,0.0,0.0,0.0,0.0,0.0,0.0,0.0,0.0,0.4689227017034261,-0.456982421875,9.983644602978183
1707029424.7428005,0.0,0.0,0.0,0.0,-0.009587379924285256,-0.18482337965149911,0.04234426133225989,-1.7286376953125002,-0.4222900390625,9.39326171875,0.0,0.0,0.0,0.0,0.0,0.0,0.0,0.0,0.0,0.0,0.0,0.0,0.0,0.0,0.0,0.0,0.0,0.0,0.0,0.0,0.0,0.0,0.0,0.0,0.0,0.0,0.0,0.7050451614627518,-0.4222900390625,9.524939124156516
1707029424.7452247,0.0,0.0,0.0,0.0,0.0015978966540475428,-0.1510012338074928,0.06285060172587002,-1.7944335937500002,-0.3911865234375,9.095385742187501,0.0,0.0,0.0,0.0,0.0,0.0,0.0,0.0,0.0,0.0,0.0,0.0,0.0,0.0,0.0,0.0,0.0,0.0,0.0,0.0,0.0,0.0,0.0,0.0,0.0,0.0,0.0,0.5660001836293747,-0.3911865234375,9.253414370582231
1707029424.7463017,0.0,0.0,0.0,0.0,0.006125270507182248,-0.10386328251309028,0.07403587830420282,-2.9871337890625,-0.57421875,9.668408203125,0.0,0.0,0.0,0.0,0.0,0.0,0.0,0.0,0.0,0.0,0.0,0.0,0.0,0.0,0.0,0.0,0.0,0.0,0.0,0.0,0.0,0.0,0.0,0.0,0.0,0.0,0.0,-0.44283708285357326,-0.57421875,10.109647905543666
1707029424.7735686,0.0,0.0,0.0,0.0,0.014381069886427884,-0.1299622611958668,0.06977482056007604,-3.702514648437501,-0.8326171875,9.856225585937501,0.0,0.0,0.0,0.0,0.0,0.0,0.0,0.0,0.0,0.0,0.0,0.0,0.0,0.0,0.0,0.0,0.0,0.0,0.0,0.0,0.0,0.0,0.0,0.0,0.0,0.0,0.0,-1.0873900171618787,-0.8326171875,10.472410442365215
1707029424.7746344,0.0,0.0,0.0,0.0,0.0268979270098003,-0.16351809093086522,0.0391484680241648,-4.189404296875001,-0.0418701171875,10.247412109375,0.0,0.0,0.0,0.0,0.0,0.0,0.0,0.0,0.0,0.0,0.0,0.0,0.0,0.0,0.0,0.0,0.0,0.0,0.0,0.0,0.0,0.0,0.0,0.0,0.0,0.0,0.0,-1.4594191807762087,-0.0418701171875,10.97409034757882
1707029424.7756574,0.0,0.0,0.0,0.0,0.02024002428460221,-0.22770027320177483,0.007190534943213943,-3.702514648437501,0.9103759765625,10.08232421875,0.0,0.0,0.0,0.0,0.0,0.0,0.0,0.0,0.0,0.0,0.0,0.0,0.0,0.0,0.0,0.0,0.0,0.0,0.0,0.0,0.0,0.0,0.0,0.0,0.0,0.0,0.0,-1.0301652780050516,0.9103759765625,10.691147547100817
1707029424.8325202,0.0,0.0,0.0,0.0,-0.022903185374681445,-0.22503711211169564,0.04314320965928366,-1.1759521484375,-1.2405517578125,9.5404052734375,0.0,0.0,0.0,0.0,0.0,0.0,0.0,0.0,0.0,0.0,0.0,0.0,0.0,0.0,0.0,0.0,0.0,0.0,0.0,0.0,0.0,0.0,0.0,0.0,0.0,0.0,0.0,1.2769773588391486,-1.2405517578125,9.527409147394742
1707029424.833562,0.0,0.0,0.0,0.0,-0.0002663161090079238,-0.2002697139739587,0.015180018213451656,-0.97138671875,-1.7597412109375,9.015234375,0.0,0.0,0.0,0.0,0.0,0.0,0.0,0.0,0.0,0.0,0.0,0.0,0.0,0.0,0.0,0.0,0.0,0.0,0.0,0.0,0.0,0.0,0.0,0.0,0.0,0.0,0.0,1.3419635197912183,-1.7597412109375,8.96756248403629
1707029424.8346496,0.0,0.0,0.0,0.0,0.029827404208887465,-0.14221280221023133,-0.03861583580614896,-1.473828125,-1.0491455078125,9.185107421875,0.0,0.0,0.0,0.0,0.0,0.0,0.0,0.0,0.0,0.0,0.0,0.0,0.0,0.0,0.0,0.0,0.0,0.0,0.0,0.0,0.0,0.0,0.0,0.0,0.0,0.0,0.0,0.8988753132902427,-1.0491455078125,9.259070734397786
1707029424.8710573,0.0,0.0,0.0,0.0,0.05006742849348968,-0.09400958647979712,-0.05858954398174324,-2.85673828125,0.2069580078125,9.936376953125,0.0,0.0,0.0,0.0,0.0,0.0,0.0,0.0,0.0,0.0,0.0,0.0,0.0,0.0,0.0,0.0,0.0,0.0,0.0,0.0,0.0,0.0,0.0,0.0,0.0,0.0,0.0,-0.2488651993228319,0.2069580078125,10.335889254182192
1707029424.8721826,0.0,0.0,0.0,0.0,0.0346210941710301,-0.12117382959860531,-0.05512743456464023,-4.0781494140625005,0.68427734375,10.62783203125,0.0,0.0,0.0,0.0,0.0,0.0,0.0,0.0,0.0,0.0,0.0,0.0,0.0,0.0,0.0,0.0,0.0,0.0,0.0,0.0,0.0,0.0,0.0,0.0,0.0,0.0,0.0,-1.2555037427218054,0.68427734375,11.31396600135838
1707029424.8741002,0.0,0.0,0.0,0.0,0.009853696033293181,-0.21012341000725188,-0.03941478413317272,-3.744384765625,0.50244140625,10.37900390625,0.0,0.0,0.0,0.0,0.0,0.0,0.0,0.0,0.0,0.0,0.0,0.0,0.0,0.0,0.0,0.0,0.0,0.0,0.0,0.0,0.0,0.0,0.0,0.0,0.0,0.0,0.0,-0.9955836026339027,0.50244140625,10.988764837285576
1707029424.8918512,0.0,0.0,0.0,0.0,-0.0042610577441267805,-0.28549086885649433,-0.01970739206658636,-2.308837890625,-0.088525390625,9.59423828125,0.0,0.0,0.0,0.0,0.0,0.0,0.0,0.0,0.0,0.0,0.0,0.0,0.0,0.0,0.0,0.0,0.0,0.0,0.0,0.0,0.0,0.0,0.0,0.0,0.0,0.0,0.0,0.1946020946986189,-0.088525390625,9.866218659006476
1707029424.8928752,0.0,0.0,0.0,0.0,0.0,-0.28469192052947057,-0.02157160482964183,-1.356591796875,-0.4270751953125,9.4841796875,0.0,0.0,0.0,0.0,0.0,0.0,0.0,0.0,0.0,0.0,0.0,0.0,0.0,0.0,0.0,0.0,0.0,0.0,0.0,0.0,0.0,0.0,0.0,0.0,0.0,0.0,0.0,1.087988652196571,-0.4270751953125,9.518733442051396
1707029424.893946,0.0,0.0,0.0,0.0,0.01251685712337242,-0.26312031569982874,-0.049002164057457984,-0.8744873046875,-0.299072265625,9.529638671875,0.0,0.0,0.0,0.0,0.0,0.0,0.0,0.0,0.0,0.0,0.0,0.0,0.0,0.0,0.0,0.0,0.0,0.0,0.0,0.0,0.0,0.0,0.0,0.0,0.0,0.0,0.0,1.5659018442410582,-0.299072265625,9.440693442579182
1707029424.9319303,0.0,0.0,0.0,0.0,0.01251685712337242,-0.24367923974225028,-0.09906959255094766,-0.32180175781250003,-0.1926025390625,9.505712890625,0.0,0.0,0.0,0.0,0.0,0.0,0.0,0.0,0.0,0.0,0.0,0.0,0.0,0.0,0.0,0.0,0.0,0.0,0.0,0.0,0.0,0.0,0.0,0.0,0.0,0.0,0.0,2.0945370167527653,-0.1926025390625,9.27766396329259
1707029424.9329996,0.0,0.0,0.0,0.0,0.01890844373956259,-0.2024002428460221,-0.11851066850852608,0.29548339843750004,-0.0095703125,8.7867431640625,0.0,0.0,0.0,0.0,0.0,0.0,0.0,0.0,0.0,0.0,0.0,0.0,0.0,0.0,0.0,0.0,0.0,0.0,0.0,0.0,0.0,0.0,0.0,0.0,0.0,0.0,0.0,2.5097554178655623,-0.0095703125,8.425870495826867
1707029424.9340568,0.0,0.0,0.0,0.0,0.022903185374681445,-0.09480853480682087,-0.1041295986220982,-1.0060791015625,0.5132080078125001,9.773681640625,0.0,0.0,0.0,0.0,0.0,0.0,0.0,0.0,0.0,0.0,0.0,0.0,0.0,0.0,0.0,0.0,0.0,0.0,0.0,0.0,0.0,0.0,0.0,0.0,0.0,0.0,0.0,1.5003609197282342,0.5132080078125001,9.710096038734285
1707029424.9708967,0.0,0.0,0.0,0.0,0.021038972611625986,-0.08815063208162278,-0.049801112384481754,-1.251318359375,0.7285400390625002,9.62294921875,0.0,0.0,0.0,0.0,0.0,0.0,0.0,0.0,0.0,0.0,0.0,0.0,0.0,0.0,0.0,0.0,0.0,0.0,0.0,0.0,0.0,0.0,0.0,0.0,0.0,0.0,0.0,1.224956562032154,0.7285400390625002,9.626340463763192
1707029424.9731963,0.0,0.0,0.0,0.0,0.005060006071150552,-0.052464273474560986,-0.010918960469324876,-3.3436279296875004,0.6196777343750001,11.1841064453125,0.0,0.0,0.0,0.0,0.0,0.0,0.0,0.0,0.0,0.0,0.0,0.0,0.0,0.0,0.0,0.0,0.0,0.0,0.0,0.0,0.0,0.0,0.0,0.0,0.0,0.0,0.0,-0.40410646221606017,0.6196777343750001,11.666224011198402
1707029424.9742856,0.0,0.0,0.0,0.0,-0.015712650431467506,-0.17417073529118218,-0.007989483270237713,-2.648583984375,-0.33137207031250004,10.1887939453125,0.0,0.0,0.0,0.0,0.0,0.0,0.0,0.0,0.0,0.0,0.0,0.0,0.0,0.0,0.0,0.0,0.0,0.0,0.0,0.0,0.0,0.0,0.0,0.0,0.0,0.0,0.0,0.016397637640584772,-0.33137207031250004,10.527404727652693
1707029425.737472,0.0,0.0,0.0,0.0,0.031158984753927088,0.028495823663847848,-0.0018642127630554663,-3.1534179687500004,1.80400390625,10.52734375,0.0,0.0,0.0,0.0,0.0,0.0,0.0,0.0,0.0,0.0,0.0,0.0,0.0,0.0,0.0,0.0,0.0,0.0,0.0,0.0,0.0,0.0,0.0,0.0,0.0,0.0,0.0,-0.3863137751480026,1.80400390625,10.982703354977332
1707029425.811884,0.0,0.0,0.0,0.0,-0.009054747706269408,-0.017576863194522972,0.0447411063133312,-2.5780029296875,-0.4294677734375,9.87177734375,0.0,0.0,0.0,0.0,0.0,0.0,0.0,0.0,0.0,0.0,0.0,0.0,0.0,0.0,0.0,0.0,0.0,0.0,0.0,0.0,0.0,0.0,0.0,0.0,0.0,0.0,0.0,0.004444903793184629,-0.4294677734375,10.202846037889792
1707029425.8132296,0.0,0.0,0.0,0.0,-0.009321063815277331,-0.03036003642690331,0.04740426740341044,-3.0947998046875,-0.6304443359375,10.2306640625,0.0,0.0,0.0,0.0,0.0,0.0,0.0,0.0,0.0,0.0,0.0,0.0,0.0,0.0,0.0,0.0,0.0,0.0,0.0,0.0,0.0,0.0,0.0,0.0,0.0,0.0,0.0,-0.40469270202021645,-0.6304443359375,10.680847195225404
1707029425.814327,0.0,0.0,0.0,0.0,-0.009054747706269408,-0.07110640110511567,0.02316950148368937,-3.2144287109375,-1.0611083984375,10.4663330078125,0.0,0.0,0.0,0.0,0.0,0.0,0.0,0.0,0.0,0.0,0.0,0.0,0.0,0.0,0.0,0.0,0.0,0.0,0.0,0.0,0.0,0.0,0.0,0.0,0.0,0.0,0.0,-0.46077966953167415,-1.0611083984375,10.939120653154488
1707029425.8381872,0.0,0.0,0.0,0.0,-0.0005326322180158476,-0.12543488734273212,-0.020772656502618055,-2.1927978515625,-1.1759521484375,9.79521484375,0.0,0.0,0.0,0.0,0.0,0.0,0.0,0.0,0.0,0.0,0.0,0.0,0.0,0.0,0.0,0.0,0.0,0.0,0.0,0.0,0.0,0.0,0.0,0.0,0.0,0.0,0.0,0.3577304298187274,-1.1759521484375,10.031282330421128
1707029425.8394535,0.0,0.0,0.0,0.0,0.010386328251309028,-0.11371697854638348,-0.04660531907638665,-1.741796875,-0.7751953125,9.688745117187501,0.0,0.0,0.0,0.0,0.0,0.0,0.0,0.0,0.0,0.0,0.0,0.0,0.0,0.0,0.0,0.0,0.0,0.0,0.0,0.0,0.0,0.0,0.0,0.0,0.0,0.0,0.0,0.7671002007201315,-0.7751953125,9.814132441619053
1707029425.840495,0.0,0.0,0.0,0.0,0.019973708175594285,-0.10199906975003482,-0.022903185374681445,-1.351806640625,-0.6125,9.382495117187501,0.0,0.0,0.0,0.0,0.0,0.0,0.0,0.0,0.0,0.0,0.0,0.0,0.0,0.0,0.0,0.0,0.0,0.0,0.0,0.0,0.0,0.0,0.0,0.0,0.0,0.0,0.0,1.066882015109863,-0.6125,9.41914850628868
1707029425.8724508,0.0,0.0,0.0,0.0,0.028495823663847848,-0.060187440635790776,0.01597896654047543,-1.89970703125,-0.332568359375,9.638500976562499,0.0,0.0,0.0,0.0,0.0,0.0,0.0,0.0,0.0,0.0,0.0,0.0,0.0,0.0,0.0,0.0,0.0,0.0,0.0,0.0,0.0,0.0,0.0,0.0,0.0,0.0,0.0,0.6016148204572391,-0.332568359375,9.805490680612731
1707029425.8735049,0.0,0.0,0.0,0.0,0.03036003642690331,-0.0537958540196006,0.0527305895835689,-2.371044921875,-0.052636718750000006,9.8945068359375,0.0,0.0,0.0,0.0,0.0,0.0,0.0,0.0,0.0,0.0,0.0,0.0,0.0,0.0,0.0,0.0,0.0,0.0,0.0,0.0,0.0,0.0,0.0,0.0,0.0,0.0,0.0,0.21041733322831346,-0.052636718750000006,10.172455165486857
1707029425.8745413,0.0,0.0,0.0,0.0,0.027963191445832,-0.06098638896281455,0.06950850445106813,-3.246728515625,-0.4653564453125,10.304833984375,0.0,0.0,0.0,0.0,0.0,0.0,0.0,0.0,0.0,0.0,0.0,0.0,0.0,0.0,0.0,0.0,0.0,0.0,0.0,0.0,0.0,0.0,0.0,0.0,0.0,0.0,0.0,-0.5329026410344944,-0.4653564453125,10.791054826794316
1707029425.9108589,0.0,0.0,0.0,0.0,0.02583266257376861,-0.10812434025721704,0.02636529479178445,-3.3783203125,-0.79912109375,10.2438232421875,0.0,0.0,0.0,0.0,0.0,0.0,0.0,0.0,0.0,0.0,0.0,0.0,0.0,0.0,0.0,0.0,0.0,0.0,0.0,0.0,0.0,0.0,0.0,0.0,0.0,0.0,0.0,-0.6756515469493873,-0.79912109375,10.765335932433127
1707029425.9119332,0.0,0.0,0.0,0.0,0.0346210941710301,-0.15925703318673845,-0.02636529479178445,-2.801708984375,-0.9247314453125,10.070361328125,0.0,0.0,0.0,0.0,0.0,0.0,0.0,0.0,0.0,0.0,0.0,0.0,0.0,0.0,0.0,0.0,0.0,0.0,0.0,0.0,0.0,0.0,0.0,0.0,0.0,0.0,0.0,-0.1617166405746704,-0.9247314453125,10.451583527881521
1707029425.913007,0.0,0.0,0.0,0.0,0.04340952576829158,-0.18482337965149911,-0.08122641324741676,-1.894921875,-0.7357177734375,9.669604492187501,0.0,0.0,0.0,0.0,0.0,0.0,0.0,0.0,0.0,0.0,0.0,0.0,0.0,0.0,0.0,0.0,0.0,0.0,0.0,0.0,0.0,0.0,0.0,0.0,0.0,0.0,0.0,0.6141163635102553,-0.7357177734375,9.83437039366299
1707029425.9386308,0.0,0.0,0.0,0.0,0.05326322180158476,-0.174703367509198,-0.09986854087797144,-1.4965576171875,-0.34931640625000004,9.7461669921875,0.0,0.0,0.0,0.0,0.0,0.0,0.0,0.0,0.0,0.0,0.0,0.0,0.0,0.0,0.0,0.0,0.0,0.0,0.0,0.0,0.0,0.0,0.0,0.0,0.0,0.0,0.0,1.0188879993991085,-0.34931640625000004,9.807615560667514
1707029425.9397156,0.0,0.0,0.0,0.0,0.060187440635790776,-0.16937704532903955,-0.0828243099014643,-1.064697265625,0.031103515625,9.734204101562499,0.0,0.0,0.0,0.0,0.0,0.0,0.0,0.0,0.0,0.0,0.0,0.0,0.0,0.0,0.0,0.0,0.0,0.0,0.0,0.0,0.0,0.0,0.0,0.0,0.0,0.0,0.0,1.4336596788593456,0.031103515625,9.686739889329044
1707029425.9412994,0.0,0.0,0.0,0.0,0.05725796343670361,-0.15153386602550864,-0.05805691176372738,-0.772802734375,-0.0562255859375,9.4901611328125,0.0,0.0,0.0,0.0,0.0,0.0,0.0,0.0,0.0,0.0,0.0,0.0,0.0,0.0,0.0,0.0,0.0,0.0,0.0,0.0,0.0,0.0,0.0,0.0,0.0,0.0,0.0,1.6542840532905343,-0.0562255859375,9.376765255888149
1707029425.959593,0.0,0.0,0.0,0.0,0.05912217619975908,-0.10812434025721704,-0.03568635860706179,-1.27763671875,-0.057421875,9.70908203125,0.0,0.0,0.0,0.0,0.0,0.0,0.0,0.0,0.0,0.0,0.0,0.0,0.0,0.0,0.0,0.0,0.0,0.0,0.0,0.0,0.0,0.0,0.0,0.0,0.0,0.0,0.0,1.2212950007364307,-0.057421875,9.716329965363265
1707029425.9606583,0.0,0.0,0.0,0.0,0.06578007892495719,-0.09427590258880504,-0.03542004249805387,-1.8279296875,0.784765625,9.9184326171875,0.0,0.0,0.0,0.0,0.0,0.0,0.0,0.0,0.0,0.0,0.0,0.0,0.0,0.0,0.0,0.0,0.0,0.0,0.0,0.0,0.0,0.0,0.0,0.0,0.0,0.0,0.0,0.7419048482182653,0.784765625,10.058141464521313
1707029425.961754,0.0,0.0,0.0,0.0,0.04607268685837081,-0.09161274149872578,-0.07217166554114736,-2.4368408203125,1.4128173828125,9.9423583984375,0.0,0.0,0.0,0.0,0.0,0.0,0.0,0.0,0.0,0.0,0.0,0.0,0.0,0.0,0.0,0.0,0.0,0.0,0.0,0.0,0.0,0.0,0.0,0.0,0.0,0.0,0.0,0.15887473431728072,1.4128173828125,10.235401434497701
1707029425.990898,0.0,0.0,0.0,0.0,0.027430559227816155,-0.11211908189233592,-0.09986854087797144,-2.9727783203125,1.040771484375,10.132568359375,0.0,0.0,0.0,0.0,0.0,0.0,0.0,0.0,0.0,0.0,0.0,0.0,0.0,0.0,0.0,0.0,0.0,0.0,0.0,0.0,0.0,0.0,0.0,0.0,0.0,0.0,0.0,-0.31147177042142404,1.040771484375,10.555062190027964
1707029425.9919667,0.0,0.0,0.0,0.0,0.00692421883420602,-0.1464738599543581,-0.14833807271741356,-3.002685546875,0.385205078125,10.3203857421875,0.0,0.0,0.0,0.0,0.0,0.0,0.0,0.0,0.0,0.0,0.0,0.0,0.0,0.0,0.0,0.0,0.0,0.0,0.0,0.0,0.0,0.0,0.0,0.0,0.0,0.0,0.0,-0.2928693554519439,0.385205078125,10.744333850993101
1707029425.993204,0.0,0.0,0.0,0.0,0.0055926382891664,-0.20399813950006965,-0.16884441311102372,-2.4296630859375004,-0.11005859375,10.228271484375,0.0,0.0,0.0,0.0,0.0,0.0,0.0,0.0,0.0,0.0,0.0,0.0,0.0,0.0,0.0,0.0,0.0,0.0,0.0,0.0,0.0,0.0,0.0,0.0,0.0,0.0,0.0,0.23818232842783793,-0.11005859375,10.510188839772137
1707029426.0379045,0.0,0.0,0.0,0.0,0.010120012142301104,-0.2431466075242344,-0.18801917295959425,-1.035986328125,0.248828125,9.663623046875,0.0,0.0,0.0,0.0,0.0,0.0,0.0,0.0,0.0,0.0,0.0,0.0,0.0,0.0,0.0,0.0,0.0,0.0,0.0,0.0,0.0,0.0,0.0,0.0,0.0,0.0,0.0,1.443572011681577,0.248828125,9.611190244254098
1707029426.0389752,0.0,0.0,0.0,0.0,0.00772316716122979,-0.21944447382252924,-0.1733717869641584,-0.6280517578125,0.6471923828125,9.45546875,0.0,0.0,0.0,0.0,0.0,0.0,0.0,0.0,0.0,0.0,0.0,0.0,0.0,0.0,0.0,0.0,0.0,0.0,0.0,0.0,0.0,0.0,0.0,0.0,0.0,0.0,0.0,1.785541578356461,0.6471923828125,9.306566475595512
1707029426.0400202,0.0,0.0,0.0,0.0,-0.009321063815277331,-0.18615496019653877,-0.15712650431467506,-0.5945556640625,0.4222900390625,9.5810791015625,0.0,0.0,0.0,0.0,0.0,0.0,0.0,0.0,0.0,0.0,0.0,0.0,0.0,0.0,0.0,0.0,0.0,0.0,0.0,0.0,0.0,0.0,0.0,0.0,0.0,0.0,0.0,1.8497385971081215,0.4222900390625,9.419609350203167
1707029426.0515542,0.0,0.0,0.0,0.0,-0.014647385995435807,-0.16431703925788899,-0.13795174446610453,-0.39477539062500006,0.1375732421875,9.351391601562499,0.0,0.0,0.0,0.0,0.0,0.0,0.0,0.0,0.0,0.0,0.0,0.0,0.0,0.0,0.0,0.0,0.0,0.0,0.0,0.0,0.0,0.0,0.0,0.0,0.0,0.0,0.0,1.984881171567037,0.1375732421875,9.146836569523664
1707029426.0526056,0.0,0.0,0.0,0.0,-0.006391586616190171,-0.10972223691126462,-0.12037488127158157,-1.074267578125,-0.3732421875,9.77607421875,0.0,0.0,0.0,0.0,0.0,0.0,0.0,0.0,0.0,0.0,0.0,0.0,0.0,0.0,0.0,0.0,0.0,0.0,0.0,0.0,0.0,0.0,0.0,0.0,0.0,0.0,0.0,1.434998139349315,-0.3732421875,9.72966897175762
1707029426.0536757,0.0,0.0,0.0,0.0,0.011451592687340723,-0.09054747706269407,-0.1384843766841204,-1.653271484375,0.035888671875,10.075146484375,0.0,0.0,0.0,0.0,0.0,0.0,0.0,0.0,0.0,0.0,0.0,0.0,0.0,0.0,0.0,0.0,0.0,0.0,0.0,0.0,0.0,0.0,0.0,0.0,0.0,0.0,0.0,0.9505400763714009,0.035888671875,10.16554754284654
1707029426.0915656,0.0,0.0,0.0,0.0,-0.001331580545039619,-0.08948221262666238,-0.19121496626768927,-2.9249267578125,0.433056640625,11.06328125,0.0,0.0,0.0,0.0,0.0,0.0,0.0,0.0,0.0,0.0,0.0,0.0,0.0,0.0,0.0,0.0,0.0,0.0,0.0,0.0,0.0,0.0,0.0,0.0,0.0,0.0,0.0,-0.029618165905890503,0.433056640625,11.44336101499107
1707029426.0927303,0.0,0.0,0.0,0.0,-0.009587379924285256,-0.20293287506403795,-0.21092235833427564,-1.8434814453125,-0.22490234375,10.0524169921875,0.0,0.0,0.0,0.0,0.0,0.0,0.0,0.0,0.0,0.0,0.0,0.0,0.0,0.0,0.0,0.0,0.0,0.0,0.0,0.0,0.0,0.0,0.0,0.0,0.0,0.0,0.0,0.7607703954352063,-0.22490234375,10.1916995456823
1707029426.093762,0.0,0.0,0.0,0.0,-0.025566346464760685,-0.21758026105947376,-0.24580976861431367,-0.791943359375,-0.33735351562500004,9.237744140625,0.0,0.0,0.0,0.0,0.0,0.0,0.0,0.0,0.0,0.0,0.0,0.0,0.0,0.0,0.0,0.0,0.0,0.0,0.0,0.0,0.0,0.0,0.0,0.0,0.0,0.0,0.0,1.5718808065293697,-0.33735351562500004,9.137411111588133
1707029426.112679,0.0,0.0,0.0,0.0,-0.010918960469324876,-0.19840550121090325,-0.18375811521546745,-0.3911865234375,-0.734521484375,9.430346679687501,0.0,0.0,0.0,0.0,0.0,0.0,0.0,0.0,0.0,0.0,0.0,0.0,0.0,0.0,0.0,0.0,0.0,0.0,0.0,0.0,0.0,0.0,0.0,0.0,0.0,0.0,0.0,2.0083364313477645,-0.734521484375,9.222312626111387
1707029426.113796,0.0,0.0,0.0,0.0,0.005060006071150552,-0.171241258092095,-0.14008227333816795,0.1818359375,-0.7153808593750001,9.1934814453125,0.0,0.0,0.0,0.0,0.0,0.0,0.0,0.0,0.0,0.0,0.0,0.0,0.0,0.0,0.0,0.0,0.0,0.0,0.0,0.0,0.0,0.0,0.0,0.0,0.0,0.0,0.0,2.502752171111271,-0.7153808593750001,8.848129574292498
1707029426.1148448,0.0,0.0,0.0,0.0,0.022903185374681445,-0.1051948630581299,-0.1230380423616608,-0.3289794921875,-0.22490234375,9.72822265625,0.0,0.0,0.0,0.0,0.0,0.0,0.0,0.0,0.0,0.0,0.0,0.0,0.0,0.0,0.0,0.0,0.0,0.0,0.0,0.0,0.0,0.0,0.0,0.0,0.0,0.0,0.0,2.1439093916456557,-0.22490234375,9.494745708878638
1707029426.151476,0.0,0.0,0.0,0.0,0.02503371424674484,-0.0625842856168621,-0.12064119738058948,-1.5683349609375,-0.2763427734375,10.6326171875,0.0,0.0,0.0,0.0,0.0,0.0,0.0,0.0,0.0,0.0,0.0,0.0,0.0,0.0,0.0,0.0,0.0,0.0,0.0,0.0,0.0,0.0,0.0,0.0,0.0,0.0,0.0,1.1738049593518742,-0.2763427734375,10.683370475791811
1707029426.1525416,0.0,0.0,0.0,0.0,0.020772656502618055,-0.09241168982574957,-0.15153386602550864,-1.571923828125,0.4414306640625,10.1792236328125,0.0,0.0,0.0,0.0,0.0,0.0,0.0,0.0,0.0,0.0,0.0,0.0,0.0,0.0,0.0,0.0,0.0,0.0,0.0,0.0,0.0,0.0,0.0,0.0,0.0,0.0,0.0,1.0555806871050786,0.4414306640625,10.245647256335072
1707029426.1536195,0.0,0.0,0.0,0.0,0.005326322180158476,-0.0993359086599556,-0.14620754384535015,-2.28251953125,0.6914550781250001,10.5739990234375,0.0,0.0,0.0,0.0,0.0,0.0,0.0,0.0,0.0,0.0,0.0,0.0,0.0,0.0,0.0,0.0,0.0,0.0,0.0,0.0,0.0,0.0,0.0,0.0,0.0,0.0,0.0,0.4680374263050995,0.6914550781250001,10.807418365445683
1707029426.1874955,0.0,0.0,0.0,0.0,-0.006391586616190171,-0.17283915474614256,-0.10333065029507443,-1.49775390625,-0.117236328125,9.448291015625,0.0,0.0,0.0,0.0,0.0,0.0,0.0,0.0,0.0,0.0,0.0,0.0,0.0,0.0,0.0,0.0,0.0,0.0,0.0,0.0,0.0,0.0,0.0,0.0,0.0,0.0,0.0,0.942339337204475,-0.117236328125,9.519740881619848
1707029426.1885436,0.0,0.0,0.0,0.0,-0.008788431597261486,-0.16511598758491275,-0.0950748509158288,-1.299169921875,-0.2428466796875,9.45068359375,0.0,0.0,0.0,0.0,0.0,0.0,0.0,0.0,0.0,0.0,0.0,0.0,0.0,0.0,0.0,0.0,0.0,0.0,0.0,0.0,0.0,0.0,0.0,0.0,0.0,0.0,0.0,1.135063193629999,-0.2428466796875,9.47179467796608
1707029426.1896107,0.0,0.0,0.0,0.0,-0.0042610577441267805,-0.1720402064191188,-0.08149272935642467,-1.117333984375,-0.3624755859375,9.783251953125,0.0,0.0,0.0,0.0,0.0,0.0,0.0,0.0,0.0,0.0,0.0,0.0,0.0,0.0,0.0,0.0,0.0,0.0,0.0,0.0,0.0,0.0,0.0,0.0,0.0,0.0,0.0,1.3951505873094159,-0.3624755859375,9.747512957144178
1707029426.2108572,0.0,0.0,0.0,0.0,-0.0018642127630554663,-0.1715075742011029,-0.08681905153658316,-1.0084716796875,-0.4773193359375,10.4950439453125,0.0,0.0,0.0,0.0,0.0,0.0,0.0,0.0,0.0,0.0,0.0,0.0,0.0,0.0,0.0,0.0,0.0,0.0,0.0,0.0,0.0,0.0,0.0,0.0,0.0,0.0,0.0,1.6806204091573116,-0.4773193359375,10.408577116162236
1707029426.211938,0.0,0.0,0.0,0.0,0.009587379924285256,-0.21491709996939448,-0.08468852266451977,0.552685546875,-0.4390380859375,9.67080078125,0.0,0.0,0.0,0.0,0.0,0.0,0.0,0.0,0.0,0.0,0.0,0.0,0.0,0.0,0.0,0.0,0.0,0.0,0.0,0.0,0.0,0.0,0.0,0.0,0.0,0.0,0.0,2.982335099109215,-0.4390380859375,9.216047223239004
1707029426.2134073,0.0,0.0,0.0,0.0,0.017843179303530896,-0.13875069279312832,-0.07403587830420282,0.6065185546875,0.0861328125,9.37890625,0.0,0.0,0.0,0.0,0.0,0.0,0.0,0.0,0.0,0.0,0.0,0.0,0.0,0.0,0.0,0.0,0.0,0.0,0.0,0.0,0.0,0.0,0.0,0.0,0.0,0.0,0.0,2.96053792111364,0.0861328125,8.920031525791677
1707029426.273614,0.0,0.0,0.0,0.0,0.01970739206658636,-0.061519021180830406,-0.04420847409531535,-0.3002685546875,0.28232421875,9.6026123046875,0.0,0.0,0.0,0.0,0.0,0.0,0.0,0.0,0.0,0.0,0.0,0.0,0.0,0.0,0.0,0.0,0.0,0.0,0.0,0.0,0.0,0.0,0.0,0.0,0.0,0.0,0.0,2.139894010175749,0.28232421875,9.365958461592912
1707029426.2746706,0.0,0.0,0.0,0.0,0.008522115488253561,-0.02370213370170522,-0.02423476591972107,-1.684375,-0.03828125,10.2749267578125,0.0,0.0,0.0,0.0,0.0,0.0,0.0,0.0,0.0,0.0,0.0,0.0,0.0,0.0,0.0,0.0,0.0,0.0,0.0,0.0,0.0,0.0,0.0,0.0,0.0,0.0,0.0,0.9710129161389378,-0.03828125,10.36669537199428
1707029426.2757187,0.0,0.0,0.0,0.0,0.011984224905356573,-0.06444849837991756,0.002663161090079238,-2.2191162109375,-0.7452880859375,10.04404296875,0.0,0.0,0.0,0.0,0.0,0.0,0.0,0.0,0.0,0.0,0.0,0.0,0.0,0.0,0.0,0.0,0.0,0.0,0.0,0.0,0.0,0.0,0.0,0.0,0.0,0.0,0.0,0.39524645860410823,-0.7452880859375,10.278669960296558
1707029426.2767787,0.0,0.0,0.0,0.0,0.0268979270098003,-0.11211908189233592,0.0002663161090079238,-2.6186767578125,-0.5120117187500001,10.434033203125,0.0,0.0,0.0,0.0,0.0,0.0,0.0,0.0,0.0,0.0,0.0,0.0,0.0,0.0,0.0,0.0,0.0,0.0,0.0,0.0,0.0,0.0,0.0,0.0,0.0,0.0,0.0,0.10740027862227652,-0.5120117187500001,10.75708984930284
1707029426.2778506,0.0,0.0,0.0,0.0,0.03728425526110933,-0.20532972004510924,-0.016511598758491276,-1.3302734375,0.33137207031250004,10.0201171875,0.0,0.0,0.0,0.0,0.0,0.0,0.0,0.0,0.0,0.0,0.0,0.0,0.0,0.0,0.0,0.0,0.0,0.0,0.0,0.0,0.0,0.0,0.0,0.0,0.0,0.0,0.0,1.249093940272984,0.33137207031250004,10.03056031326886
1707029426.2789614,0.0,0.0,0.0,0.0,0.02370213370170522,-0.2223739510216164,-0.02716424311880823,-0.6077148437500001,1.0658935546875,10.35986328125,0.0,0.0,0.0,0.0,0.0,0.0,0.0,0.0,0.0,0.0,0.0,0.0,0.0,0.0,0.0,0.0,0.0,0.0,0.0,0.0,0.0,0.0,0.0,0.0,0.0,0.0,0.0,2.0341153010181903,1.0658935546875,10.17636769577779
1707029426.3006892,0.0,0.0,0.0,0.0,-0.008255799379245636,-0.2569950451926465,-0.035153726389045944,2.14375,0.5263671875,8.5833740234375,0.0,0.0,0.0,0.0,0.0,0.0,0.0,0.0,0.0,0.0,0.0,0.0,0.0,0.0,0.0,0.0,0.0,0.0,0.0,0.0,0.0,0.0,0.0,0.0,0.0,0.0,0.0,4.246372461039362,0.5263671875,7.761333301105433
1707029426.3026254,0.0,0.0,0.0,0.0,-0.002929477199087161,-0.108390656366225,0.005858954398174322,1.7740966796875,-0.4689453125,9.3310546875,0.0,0.0,0.0,0.0,0.0,0.0,0.0,0.0,0.0,0.0,0.0,0.0,0.0,0.0,0.0,0.0,0.0,0.0,0.0,0.0,0.0,0.0,0.0,0.0,0.0,0.0,0.0,4.077989903418808,-0.4689453125,8.57822819454042
1707029426.3038692,0.0,0.0,0.0,0.0,0.018642127630554665,-0.005326322180158476,0.031158984753927088,0.5945556640625,-0.5419189453125001,9.686352539062499,0.0,0.0,0.0,0.0,0.0,0.0,0.0,0.0,0.0,0.0,0.0,0.0,0.0,0.0,0.0,0.0,0.0,0.0,0.0,0.0,0.0,0.0,0.0,0.0,0.0,0.0,0.0,3.0267780635260664,-0.5419189453125001,9.220495458641512
1707029426.327126,0.0,0.0,0.0,0.0,0.034354778062022175,0.05486111845563231,0.04554005464035497,-1.7262451171875,0.1088623046875,10.9544189453125,0.0,0.0,0.0,0.0,0.0,0.0,0.0,0.0,0.0,0.0,0.0,0.0,0.0,0.0,0.0,0.0,0.0,0.0,0.0,0.0,0.0,0.0,0.0,0.0,0.0,0.0,0.0,1.102483038759741,0.1088623046875,11.03466119929752
1707029426.3281946,0.0,0.0,0.0,0.0,0.024767398137736915,-0.02263686926567352,0.031158984753927088,-1.6544677734375,0.7428955078125,10.14453125,0.0,0.0,0.0,0.0,0.0,0.0,0.0,0.0,0.0,0.0,0.0,0.0,0.0,0.0,0.0,0.0,0.0,0.0,0.0,0.0,0.0,0.0,0.0,0.0,0.0,0.0,0.0,0.9669437682569058,0.7428955078125,10.232975991596918
1707029426.3292747,0.0,0.0,0.0,0.0,0.00346210941710301,-0.04580637074936289,0.016245282649483352,-2.189208984375,0.7428955078125,10.4400146484375,0.0,0.0,0.0,0.0,0.0,0.0,0.0,0.0,0.0,0.0,0.0,0.0,0.0,0.0,0.0,0.0,0.0,0.0,0.0,0.0,0.0,0.0,0.0,0.0,0.0,0.0,0.0,0.5243989256903512,0.7428955078125,10.654179818437111
1707029426.3671372,0.0,0.0,0.0,0.0,-0.01251685712337242,-0.1265001517787638,0.019174759848570515,-1.1711669921875,-0.0394775390625,9.597827148437501,0.0,0.0,0.0,0.0,0.0,0.0,0.0,0.0,0.0,0.0,0.0,0.0,0.0,0.0,0.0,0.0,0.0,0.0,0.0,0.0,0.0,0.0,0.0,0.0,0.0,0.0,0.0,1.2961399826405784,-0.0394775390625,9.581750322371896
1707029426.369847,0.0,0.0,0.0,0.0,-0.015712650431467506,-0.12916331286884303,0.001331580545039619,-0.8553466796875001,-0.2201171875,10.099072265625,0.0,0.0,0.0,0.0,0.0,0.0,0.0,0.0,0.0,0.0,0.0,0.0,0.0,0.0,0.0,0.0,0.0,0.0,0.0,0.0,0.0,0.0,0.0,0.0,0.0,0.0,0.0,1.7285408363808437,-0.2201171875,9.986742469180445
1707029426.3709195,0.0,0.0,0.0,0.0,-0.008522115488253561,-0.15472965933360375,0.0010652644360316951,0.8972167968750001,-0.413916015625,9.022412109375,0.0,0.0,0.0,0.0,0.0,0.0,0.0,0.0,0.0,0.0,0.0,0.0,0.0,0.0,0.0,0.0,0.0,0.0,0.0,0.0,0.0,0.0,0.0,0.0,0.0,0.0,0.0,3.151543974986748,-0.413916015625,8.501569785969885
1707029426.3867147,0.0,0.0,0.0,0.0,0.0023968449810713144,-0.05539375067364816,0.0,0.35769042968750003,0.026318359375,9.8705810546875,0.0,0.0,0.0,0.0,0.0,0.0,0.0,0.0,0.0,0.0,0.0,0.0,0.0,0.0,0.0,0.0,0.0,0.0,0.0,0.0,0.0,0.0,0.0,0.0,0.0,0.0,0.0,2.844252471422901,0.026318359375,9.458675418865507
1707029426.3878503,0.0,0.0,0.0,0.0,0.008255799379245636,-0.007989483270237713,0.0037284255261109327,-0.3541015625,0.5179931640625001,10.1122314453125,0.0,0.0,0.0,0.0,0.0,0.0,0.0,0.0,0.0,0.0,0.0,0.0,0.0,0.0,0.0,0.0,0.0,0.0,0.0,0.0,0.0,0.0,0.0,0.0,0.0,0.0,0.0,2.216796492544565,0.5179931640625001,9.872609889526375
1707029426.3889303,0.0,0.0,0.0,0.0,0.0002663161090079238,0.00692421883420602,0.019973708175594285,-1.294384765625,0.236865234375,10.3945556640625,0.0,0.0,0.0,0.0,0.0,0.0,0.0,0.0,0.0,0.0,0.0,0.0,0.0,0.0,0.0,0.0,0.0,0.0,0.0,0.0,0.0,0.0,0.0,0.0,0.0,0.0,0.0,1.3785831280939098,0.236865234375,10.383724184208223
1707029426.426986,0.0,0.0,0.0,0.0,-0.0111852765783328,-0.01251685712337242,0.011451592687340723,-1.4774169921875,-0.102880859375,9.973461914062499,0.0,0.0,0.0,0.0,0.0,0.0,0.0,0.0,0.0,0.0,0.0,0.0,0.0,0.0,0.0,0.0,0.0,0.0,0.0,0.0,0.0,0.0,0.0,0.0,0.0,0.0,0.0,1.0949329418095146,-0.102880859375,10.02266558221913
1707029426.4281576,0.0,0.0,0.0,0.0,-0.011451592687340723,-0.03302319751698255,-0.001331580545039619,-1.6628417968750002,-0.14475097656250002,10.0476318359375,0.0,0.0,0.0,0.0,0.0,0.0,0.0,0.0,0.0,0.0,0.0,0.0,0.0,0.0,0.0,0.0,0.0,0.0,0.0,0.0,0.0,0.0,0.0,0.0,0.0,0.0,0.0,0.9343175057973696,-0.14475097656250002,10.141350952922387
1707029426.4293356,0.0,0.0,0.0,0.0,-0.011451592687340723,-0.06684534336098888,-0.01597896654047543,-1.2919921875,-0.33017578125,9.8,0.0,0.0,0.0,0.0,0.0,0.0,0.0,0.0,0.0,0.0,0.0,0.0,0.0,0.0,0.0,0.0,0.0,0.0,0.0,0.0,0.0,0.0,0.0,0.0,0.0,0.0,0.0,1.2304179368162806,-0.33017578125,9.807921059700766
1707029426.4471295,0.0,0.0,0.0,0.0,-0.011717908796348644,-0.0761664071762662,-0.04127899689622819,-1.10537109375,-0.058618164062500006,9.97705078125,0.0,0.0,0.0,0.0,0.0,0.0,0.0,0.0,0.0,0.0,0.0,0.0,0.0,0.0,0.0,0.0,0.0,0.0,0.0,0.0,0.0,0.0,0.0,0.0,0.0,0.0,0.0,1.4557737555145065,-0.058618164062500006,9.931974140083858
1707029426.448206,0.0,0.0,0.0,0.0,-0.019174759848570515,-0.0860201032095594,-0.04554005464035497,-0.6280517578125,-0.404345703125,9.9638916015625,0.0,0.0,0.0,0.0,0.0,0.0,0.0,0.0,0.0,0.0,0.0,0.0,0.0,0.0,0.0,0.0,0.0,0.0,0.0,0.0,0.0,0.0,0.0,0.0,0.0,0.0,0.0,1.9142215473599091,-0.404345703125,9.798435626455996
1707029426.4492795,0.0,0.0,0.0,0.0,-0.0015978966540475428,-0.0828243099014643,-0.019973708175594285,-0.1088623046875,-0.6017333984375001,9.572705078125,0.0,0.0,0.0,0.0,0.0,0.0,0.0,0.0,0.0,0.0,0.0,0.0,0.0,0.0,0.0,0.0,0.0,0.0,0.0,0.0,0.0,0.0,0.0,0.0,0.0,0.0,0.0,2.3174988687936118,-0.6017333984375001,9.288580758505704
1707029426.4879,0.0,0.0,0.0,0.0,0.005858954398174322,-0.0223705531566656,-0.015180018213451656,-0.6555664062500001,0.055029296875,9.7509521484375,0.0,0.0,0.0,0.0,0.0,0.0,0.0,0.0,0.0,0.0,0.0,0.0,0.0,0.0,0.0,0.0,0.0,0.0,0.0,0.0,0.0,0.0,0.0,0.0,0.0,0.0,0.0,1.8337085474718973,0.055029296875,9.59939310982991
1707029426.489026,0.0,0.0,0.0,0.0,0.011984224905356573,-0.0111852765783328,0.009321063815277331,-1.3482177734375,0.1052734375,10.256982421875,0.0,0.0,0.0,0.0,0.0,0.0,0.0,0.0,0.0,0.0,0.0,0.0,0.0,0.0,0.0,0.0,0.0,0.0,0.0,0.0,0.0,0.0,0.0,0.0,0.0,0.0,0.0,1.2916835793312786,0.1052734375,10.264255116575749
1707029426.4901192,0.0,0.0,0.0,0.0,-0.0010652644360316951,-0.02716424311880823,-0.010918960469324876,-1.4941650390625,0.0442626953125,10.132568359375,0.0,0.0,0.0,0.0,0.0,0.0,0.0,0.0,0.0,0.0,0.0,0.0,0.0,0.0,0.0,0.0,0.0,0.0,0.0,0.0,0.0,0.0,0.0,0.0,0.0,0.0,0.0,1.118999454198719,0.0442626953125,10.180830562526173
1707029426.5080276,0.0,0.0,0.0,0.0,-0.006125270507182248,-0.05858954398174324,-0.0223705531566656,-1.50732421875,-0.189013671875,10.125390625,0.0,0.0,0.0,0.0,0.0,0.0,0.0,0.0,0.0,0.0,0.0,0.0,0.0,0.0,0.0,0.0,0.0,0.0,0.0,0.0,0.0,0.0,0.0,0.0,0.0,0.0,0.0,1.1044520648493399,-0.189013671875,10.177217067829408
1707029426.5092206,0.0,0.0,0.0,0.0,-0.018375811521546746,-0.08628641931856731,-0.043942157986307434,-1.27763671875,-0.423486328125,10.0966796875,0.0,0.0,0.0,0.0,0.0,0.0,0.0,0.0,0.0,0.0,0.0,0.0,0.0,0.0,0.0,0.0,0.0,0.0,0.0,0.0,0.0,0.0,0.0,0.0,0.0,0.0,0.0,1.3193945535767064,-0.423486328125,10.09130785919573
1707029426.5103383,0.0,0.0,0.0,0.0,-0.00692421883420602,-0.1251685712337242,-0.031158984753927088,0.1303955078125,-0.765625,9.204248046875,0.0,0.0,0.0,0.0,0.0,0.0,0.0,0.0,0.0,0.0,0.0,0.0,0.0,0.0,0.0,0.0,0.0,0.0,0.0,0.0,0.0,0.0,0.0,0.0,0.0,0.0,0.0,2.4557115740148707,-0.765625,8.871565011998126
1707029426.5477836,0.0,0.0,0.0,0.0,0.010120012142301104,-0.06125270507182247,-0.02050634039361013,-0.011962890625,-0.2093505859375,9.811962890625,0.0,0.0,0.0,0.0,0.0,0.0,0.0,0.0,0.0,0.0,0.0,0.0,0.0,0.0,0.0,0.0,0.0,0.0,0.0,0.0,0.0,0.0,0.0,0.0,0.0,0.0,0.0,2.471798621782762,-0.2093505859375,9.495523705994687
1707029426.5488183,0.0,0.0,0.0,0.0,0.028229507554839925,-0.02636529479178445,0.006391586616190171,-0.1471435546875,0.6136962890625001,9.601416015625,0.0,0.0,0.0,0.0,0.0,0.0,0.0,0.0,0.0,0.0,0.0,0.0,0.0,0.0,0.0,0.0,0.0,0.0,0.0,0.0,0.0,0.0,0.0,0.0,0.0,0.0,0.0,2.2877306486254874,0.6136962890625001,9.326045743514554
1707029426.5498717,0.0,0.0,0.0,0.0,0.011717908796348644,0.018109495412538815,0.02316950148368937,-1.447509765625,0.5754150390625,10.7366943359375,0.0,0.0,0.0,0.0,0.0,0.0,0.0,0.0,0.0,0.0,0.0,0.0,0.0,0.0,0.0,0.0,0.0,0.0,0.0,0.0,0.0,0.0,0.0,0.0,0.0,0.0,0.0,1.3170377629758954,0.5754150390625,10.753478568157728
1707029426.5683055,0.0,0.0,0.0,0.0,-0.009853696033293181,-0.03036003642690331,0.021837920938649752,-1.385302734375,0.07536621093750001,10.201953125,0.0,0.0,0.0,0.0,0.0,0.0,0.0,0.0,0.0,0.0,0.0,0.0,0.0,0.0,0.0,0.0,0.0,0.0,0.0,0.0,0.0,0.0,0.0,0.0,0.0,0.0,0.0,1.2418783505057873,0.07536621093750001,10.220403582692276
1707029426.569358,0.0,0.0,0.0,0.0,-0.018642127630554665,-0.05832322787273531,0.01890844373956259,-1.4104248046875,-0.44501953125,10.1624755859375,0.0,0.0,0.0,0.0,0.0,0.0,0.0,0.0,0.0,0.0,0.0,0.0,0.0,0.0,0.0,0.0,0.0,0.0,0.0,0.0,0.0,0.0,0.0,0.0,0.0,0.0,0.0,1.2075826066347666,-0.44501953125,10.188569694152692
1707029426.5704274,0.0,0.0,0.0,0.0,-0.005858954398174322,-0.10333065029507443,0.018642127630554665,-0.1208251953125,-0.973779296875,9.242529296875,0.0,0.0,0.0,0.0,0.0,0.0,0.0,0.0,0.0,0.0,0.0,0.0,0.0,0.0,0.0,0.0,0.0,0.0,0.0,0.0,0.0,0.0,0.0,0.0,0.0,0.0,0.0,2.2223591912558316,-0.973779296875,8.972182909217562
1707029426.6163952,0.0,0.0,0.0,0.0,0.014913702104443732,-0.056725331218687766,0.006125270507182248,0.0011962890625,-0.423486328125,9.58466796875,0.0,0.0,0.0,0.0,0.0,0.0,0.0,0.0,0.0,0.0,0.0,0.0,0.0,0.0,0.0,0.0,0.0,0.0,0.0,0.0,0.0,0.0,0.0,0.0,0.0,0.0,0.0,2.4270018371917272,-0.423486328125,9.27229872170638
1707029426.6177485,0.0,0.0,0.0,0.0,0.026631610900792375,-0.03036003642690331,0.010652644360316953,-0.03828125,0.28232421875,9.742578125,0.0,0.0,0.0,0.0,0.0,0.0,0.0,0.0,0.0,0.0,0.0,0.0,0.0,0.0,0.0,0.0,0.0,0.0,0.0,0.0,0.0,0.0,0.0,0.0,0.0,0.0,0.0,2.428776128791866,0.28232421875,9.435059114390375
1707029426.6188195,0.0,0.0,0.0,0.0,0.02024002428460221,0.01597896654047543,0.01384843766841204,-0.81826171875,0.8170654296875,10.21630859375,0.0,0.0,0.0,0.0,0.0,0.0,0.0,0.0,0.0,0.0,0.0,0.0,0.0,0.0,0.0,0.0,0.0,0.0,0.0,0.0,0.0,0.0,0.0,0.0,0.0,0.0,0.0,1.7940904378844036,0.8170654296875,10.090775640345669
1707029426.6361537,0.0,0.0,0.0,0.0,0.006657902725198095,0.0055926382891664,0.02530003035575276,-1.1879150390625,0.6519775390625,10.1409423828125,0.0,0.0,0.0,0.0,0.0,0.0,0.0,0.0,0.0,0.0,0.0,0.0,0.0,0.0,0.0,0.0,0.0,0.0,0.0,0.0,0.0,0.0,0.0,0.0,0.0,0.0,0.0,1.4173977186770925,0.6519775390625,10.111421178975917
1707029426.6372354,0.0,0.0,0.0,0.0,-0.006391586616190171,0.007989483270237713,0.02530003035575276,-1.7549560546875,0.399560546875,10.23544921875,0.0,0.0,0.0,0.0,0.0,0.0,0.0,0.0,0.0,0.0,0.0,0.0,0.0,0.0,0.0,0.0,0.0,0.0,0.0,0.0,0.0,0.0,0.0,0.0,0.0,0.0,0.0,0.892738283485097,0.399560546875,10.346366986565593
1707029426.638302,0.0,0.0,0.0,0.0,-0.018642127630554665,-0.031691616971942935,0.014381069886427884,-1.67958984375,0.06220703125,10.0165283203125,0.0,0.0,0.0,0.0,0.0,0.0,0.0,0.0,0.0,0.0,0.0,0.0,0.0,0.0,0.0,0.0,0.0,0.0,0.0,0.0,0.0,0.0,0.0,0.0,0.0,0.0,0.0,0.9102425709594013,0.06220703125,10.115499003848683
1707029426.6668036,0.0,0.0,0.0,0.0,-0.026098978682776528,-0.060187440635790776,0.0010652644360316951,-1.3506103515625,-0.17465820312500002,9.8705810546875,0.0,0.0,0.0,0.0,0.0,0.0,0.0,0.0,0.0,0.0,0.0,0.0,0.0,0.0,0.0,0.0,0.0,0.0,0.0,0.0,0.0,0.0,0.0,0.0,0.0,0.0,0.0,1.1915721245316677,-0.17465820312500002,9.891040114717091
1707029426.6678803,0.0,0.0,0.0,0.0,-0.027430559227816155,-0.0782969360483296,-0.009054747706269408,-0.90439453125,-0.437841796875,9.8095703125,0.0,0.0,0.0,0.0,0.0,0.0,0.0,0.0,0.0,0.0,0.0,0.0,0.0,0.0,0.0,0.0,0.0,0.0,0.0,0.0,0.0,0.0,0.0,0.0,0.0,0.0,0.0,1.6078180418299866,-0.437841796875,9.719080220288454
1707029426.6689043,0.0,0.0,0.0,0.0,-0.010386328251309028,-0.07989483270237714,0.0055926382891664,-0.5263671875,-0.763232421875,9.83828125,0.0,0.0,0.0,0.0,0.0,0.0,0.0,0.0,0.0,0.0,0.0,0.0,0.0,0.0,0.0,0.0,0.0,0.0,0.0,0.0,0.0,0.0,0.0,0.0,0.0,0.0,0.0,1.980803855778213,-0.763232421875,9.651179018913306
1707029426.6875885,0.0,0.0,0.0,0.0,0.0005326322180158476,-0.06125270507182247,-0.001331580545039619,-0.21533203125,-0.30146484375000004,9.742578125,0.0,0.0,0.0,0.0,0.0,0.0,0.0,0.0,0.0,0.0,0.0,0.0,0.0,0.0,0.0,0.0,0.0,0.0,0.0,0.0,0.0,0.0,0.0,0.0,0.0,0.0,0.0,2.2574899303745677,-0.30146484375000004,9.47987002124334
1707029426.688644,0.0,0.0,0.0,0.0,0.011984224905356573,-0.018375811521546746,0.0023968449810713144,-0.6866699218750001,0.26796875000000003,9.90048828125,0.0,0.0,0.0,0.0,0.0,0.0,0.0,0.0,0.0,0.0,0.0,0.0,0.0,0.0,0.0,0.0,0.0,0.0,0.0,0.0,0.0,0.0,0.0,0.0,0.0,0.0,0.0,1.841464778537917,0.26796875000000003,9.751932693480851
1707029426.6896703,0.0,0.0,0.0,0.0,-0.0002663161090079238,-0.0005326322180158476,-0.0010652644360316951,-1.3290771484375,0.11962890625,10.1098388671875,0.0,0.0,0.0,0.0,0.0,0.0,0.0,0.0,0.0,0.0,0.0,0.0,0.0,0.0,0.0,0.0,0.0,0.0,0.0,0.0,0.0,0.0,0.0,0.0,0.0,0.0,0.0,1.272959509275617,0.11962890625,10.11705797525835
1707029426.726974,0.0,0.0,0.0,0.0,-0.005326322180158476,-0.014647385995435807,0.0015978966540475428,-1.4510986328125,-0.029907226562500003,9.8011962890625,0.0,0.0,0.0,0.0,0.0,0.0,0.0,0.0,0.0,0.0,0.0,0.0,0.0,0.0,0.0,0.0,0.0,0.0,0.0,0.0,0.0,0.0,0.0,0.0,0.0,0.0,0.0,1.0767946024740656,-0.029907226562500003,9.849347659767398
1707029426.72809,0.0,0.0,0.0,0.0,-0.012783173232380343,-0.019174759848570515,-0.0005326322180158476,-2.2095458984375,-0.210546875,10.55126953125,0.0,0.0,0.0,0.0,0.0,0.0,0.0,0.0,0.0,0.0,0.0,0.0,0.0,0.0,0.0,0.0,0.0,0.0,0.0,0.0,0.0,0.0,0.0,0.0,0.0,0.0,0.0,0.5328823646378629,-0.210546875,10.766959560797307
1707029426.7291768,0.0,0.0,0.0,0.0,-0.009853696033293181,-0.09480853480682087,0.005326322180158476,-1.509716796875,-0.44860839843750006,10.0009765625,0.0,0.0,0.0,0.0,0.0,0.0,0.0,0.0,0.0,0.0,0.0,0.0,0.0,0.0,0.0,0.0,0.0,0.0,0.0,0.0,0.0,0.0,0.0,0.0,0.0,0.0,0.0,1.0706486411362115,-0.44860839843750006,10.057459346061211
1707029426.7471373,0.0,0.0,0.0,0.0,-0.009054747706269408,-0.11451592687340724,-0.0167779148674992,-0.9953125,-0.366064453125,9.989013671875,0.0,0.0,0.0,0.0,0.0,0.0,0.0,0.0,0.0,0.0,0.0,0.0,0.0,0.0,0.0,0.0,0.0,0.0,0.0,0.0,0.0,0.0,0.0,0.0,0.0,0.0,0.0,1.5652767239126222,-0.366064453125,9.915692103284536
1707029426.7482843,0.0,0.0,0.0,0.0,0.005060006071150552,-0.13395700283098566,-0.008522115488253561,0.1818359375,-0.246435546875,9.3657470703125,0.0,0.0,0.0,0.0,0.0,0.0,0.0,0.0,0.0,0.0,0.0,0.0,0.0,0.0,0.0,0.0,0.0,0.0,0.0,0.0,0.0,0.0,0.0,0.0,0.0,0.0,0.0,2.5463519723736154,-0.246435546875,9.014786415995815
1707029426.7493224,0.0,0.0,0.0,0.0,-0.0002663161090079238,-0.0660463950339651,-0.018642127630554665,0.169873046875,0.2021728515625,9.8442626953125,0.0,0.0,0.0,0.0,0.0,0.0,0.0,0.0,0.0,0.0,0.0,0.0,0.0,0.0,0.0,0.0,0.0,0.0,0.0,0.0,0.0,0.0,0.0,0.0,0.0,0.0,0.0,2.655889139650731,0.2021728515625,9.480749851370472
1707029426.7866635,0.0,0.0,0.0,0.0,0.004793689962142629,-0.03275688140797463,0.014913702104443732,-0.210546875,0.35888671875,10.089501953125,0.0,0.0,0.0,0.0,0.0,0.0,0.0,0.0,0.0,0.0,0.0,0.0,0.0,0.0,0.0,0.0,0.0,0.0,0.0,0.0,0.0,0.0,0.0,0.0,0.0,0.0,0.0,2.349924442408548,0.35888671875,9.814287277416344
1707029426.7877352,0.0,0.0,0.0,0.0,-0.0055926382891664,-0.01970739206658636,0.02423476591972107,-0.69384765625,0.008374023437500001,10.087109375,0.0,0.0,0.0,0.0,0.0,0.0,0.0,0.0,0.0,0.0,0.0,0.0,0.0,0.0,0.0,0.0,0.0,0.0,0.0,0.0,0.0,0.0,0.0,0.0,0.0,0.0,0.0,1.8817538615011524,0.008374023437500001,9.934294263712044
1707029426.7888002,0.0,0.0,0.0,0.0,-0.009054747706269408,-0.029827404208887465,0.023968449810713145,-0.8481689453125002,-0.5179931640625001,9.759326171875,0.0,0.0,0.0,0.0,0.0,0.0,0.0,0.0,0.0,0.0,0.0,0.0,0.0,0.0,0.0,0.0,0.0,0.0,0.0,0.0,0.0,0.0,0.0,0.0,0.0,0.0,0.0,1.6494963745177462,-0.5179931640625001,9.656241484101857
1707029426.8193188,0.0,0.0,0.0,0.0,-0.005060006071150552,-0.024767398137736915,0.009321063815277331,-1.21064453125,-0.6735107421875001,9.906469726562499,0.0,0.0,0.0,0.0,0.0,0.0,0.0,0.0,0.0,0.0,0.0,0.0,0.0,0.0,0.0,0.0,0.0,0.0,0.0,0.0,0.0,0.0,0.0,0.0,0.0,0.0,0.0,1.336064100345268,-0.6735107421875001,9.890335451546292
1707029426.8211799,0.0,0.0,0.0,0.0,0.005326322180158476,-0.04740426740341044,0.0010652644360316951,-0.9869384765625,-0.2237060546875,9.853833007812499,0.0,0.0,0.0,0.0,0.0,0.0,0.0,0.0,0.0,0.0,0.0,0.0,0.0,0.0,0.0,0.0,0.0,0.0,0.0,0.0,0.0,0.0,0.0,0.0,0.0,0.0,0.0,1.5391643652270544,-0.2237060546875,9.782793341330983
1707029426.8223243,0.0,0.0,0.0,0.0,0.010652644360316953,-0.03941478413317272,0.012250541014364496,-1.3649658203125,-0.008374023437500001,10.3467041015625,0.0,0.0,0.0,0.0,0.0,0.0,0.0,0.0,0.0,0.0,0.0,0.0,0.0,0.0,0.0,0.0,0.0,0.0,0.0,0.0,0.0,0.0,0.0,0.0,0.0,0.0,0.0,1.2981890606564828,-0.008374023437500001,10.355294424530065
1707029426.8479252,0.0,0.0,0.0,0.0,0.007989483270237713,-0.08175904546543261,0.024501082028728992,-0.7931396484375,-0.1112548828125,10.0476318359375,0.0,0.0,0.0,0.0,0.0,0.0,0.0,0.0,0.0,0.0,0.0,0.0,0.0,0.0,0.0,0.0,0.0,0.0,0.0,0.0,0.0,0.0,0.0,0.0,0.0,0.0,0.0,1.775703088563425,-0.1112548828125,9.921232511827078
1707029426.8490007,0.0,0.0,0.0,0.0,0.004793689962142629,-0.07163903332313151,0.02503371424674484,-0.6412109375,-0.34931640625000004,10.056005859375,0.0,0.0,0.0,0.0,0.0,0.0,0.0,0.0,0.0,0.0,0.0,0.0,0.0,0.0,0.0,0.0,0.0,0.0,0.0,0.0,0.0,0.0,0.0,0.0,0.0,0.0,0.0,1.9248045990159095,-0.34931640625000004,9.890881283574338
1707029426.8500814,0.0,0.0,0.0,0.0,0.010386328251309028,-0.08202536157444051,0.014114753777419962,0.0657958984375,-0.42109375,9.4829833984375,0.0,0.0,0.0,0.0,0.0,0.0,0.0,0.0,0.0,0.0,0.0,0.0,0.0,0.0,0.0,0.0,0.0,0.0,0.0,0.0,0.0,0.0,0.0,0.0,0.0,0.0,0.0,2.4637621590297822,-0.42109375,9.157574966060903
1707029426.8685205,0.0,0.0,0.0,0.0,0.01597896654047543,-0.03036003642690331,-0.0023968449810713144,-0.35888671875,-0.14475097656250002,9.72822265625,0.0,0.0,0.0,0.0,0.0,0.0,0.0,0.0,0.0,0.0,0.0,0.0,0.0,0.0,0.0,0.0,0.0,0.0,0.0,0.0,0.0,0.0,0.0,0.0,0.0,0.0,0.0,2.1149759121832745,-0.14475097656250002,9.502315118820016
1707029426.8695986,0.0,0.0,0.0,0.0,0.01970739206658636,-0.02316950148368937,-0.0021305288720633903,-0.6986328125000001,0.1782470703125,9.8753662109375,0.0,0.0,0.0,0.0,0.0,0.0,0.0,0.0,0.0,0.0,0.0,0.0,0.0,0.0,0.0,0.0,0.0,0.0,0.0,0.0,0.0,0.0,0.0,0.0,0.0,0.0,0.0,1.823533082402206,0.1782470703125,9.730656334709003
1707029426.8706615,0.0,0.0,0.0,0.0,0.015446334322459582,-0.01251685712337242,0.0055926382891664,-1.3111328125,0.41271972656250006,10.2629638671875,0.0,0.0,0.0,0.0,0.0,0.0,0.0,0.0,0.0,0.0,0.0,0.0,0.0,0.0,0.0,0.0,0.0,0.0,0.0,0.0,0.0,0.0,0.0,0.0,0.0,0.0,0.0,1.3290749758529077,0.41271972656250006,10.260655744140914
1707029426.9069748,0.0,0.0,0.0,0.0,0.009054747706269408,-0.05193164125654513,0.017044230976507122,-0.978564453125,0.3409423828125,10.099072265625,0.0,0.0,0.0,0.0,0.0,0.0,0.0,0.0,0.0,0.0,0.0,0.0,0.0,0.0,0.0,0.0,0.0,0.0,0.0,0.0,0.0,0.0,0.0,0.0,0.0,0.0,0.0,1.6093349009958318,0.3409423828125,10.017928438138927
1707029426.9080467,0.0,0.0,0.0,0.0,-0.0007989483270237714,-0.04846953183944214,0.011717908796348644,-1.0874267578125,0.270361328125,10.099072265625,0.0,0.0,0.0,0.0,0.0,0.0,0.0,0.0,0.0,0.0,0.0,0.0,0.0,0.0,0.0,0.0,0.0,0.0,0.0,0.0,0.0,0.0,0.0,0.0,0.0,0.0,0.0,1.504017035752763,0.270361328125,10.045481090325548
1707029426.9092538,0.0,0.0,0.0,0.0,-0.012783173232380343,-0.0692421883420602,-0.010652644360316953,-0.7955322265625001,-0.00478515625,9.9375732421875,0.0,0.0,0.0,0.0,0.0,0.0,0.0,0.0,0.0,0.0,0.0,0.0,0.0,0.0,0.0,0.0,0.0,0.0,0.0,0.0,0.0,0.0,0.0,0.0,0.0,0.0,0.0,1.745532981622159,-0.00478515625,9.815362860200826
1707029426.9287004,0.0,0.0,0.0,0.0,-0.012783173232380343,-0.0671116594699968,-0.021038972611625986,-0.4414306640625,-0.42587890625,9.6181640625,0.0,0.0,0.0,0.0,0.0,0.0,0.0,0.0,0.0,0.0,0.0,0.0,0.0,0.0,0.0,0.0,0.0,0.0,0.0,0.0,0.0,0.0,0.0,0.0,0.0,0.0,0.0,2.007264080282825,-0.42587890625,9.41673148583666
1707029426.92974,0.0,0.0,0.0,0.0,-0.006657902725198095,-0.04527373853134704,-0.024501082028728992,-0.346923828125,-0.46655273437500006,9.529638671875,0.0,0.0,0.0,0.0,0.0,0.0,0.0,0.0,0.0,0.0,0.0,0.0,0.0,0.0,0.0,0.0,0.0,0.0,0.0,0.0,0.0,0.0,0.0,0.0,0.0,0.0,0.0,2.0762884219574684,-0.46655273437500006,9.307169051213252
1707029426.9308093,0.0,0.0,0.0,0.0,0.007456851052221865,-0.010918960469324876,-0.010652644360316953,-1.2644775390625,-0.2189208984375,10.2055419921875,0.0,0.0,0.0,0.0,0.0,0.0,0.0,0.0,0.0,0.0,0.0,0.0,0.0,0.0,0.0,0.0,0.0,0.0,0.0,0.0,0.0,0.0,0.0,0.0,0.0,0.0,0.0,1.3596779367267744,-0.2189208984375,10.19329518406459
1707029426.9724426,0.0,0.0,0.0,0.0,0.010120012142301104,-0.038083203588133115,-0.0111852765783328,-1.3218994140625,-0.2380615234375,10.1337646484375,0.0,0.0,0.0,0.0,0.0,0.0,0.0,0.0,0.0,0.0,0.0,0.0,0.0,0.0,0.0,0.0,0.0,0.0,0.0,0.0,0.0,0.0,0.0,0.0,0.0,0.0,0.0,1.2859590722996919,-0.2380615234375,10.138388100442324
1707029426.973514,0.0,0.0,0.0,0.0,0.011451592687340723,-0.05060006071150552,-0.022903185374681445,-1.3075439453125,-0.1519287109375,10.084716796875,0.0,0.0,0.0,0.0,0.0,0.0,0.0,0.0,0.0,0.0,0.0,0.0,0.0,0.0,0.0,0.0,0.0,0.0,0.0,0.0,0.0,0.0,0.0,0.0,0.0,0.0,0.0,1.287433310137773,-0.1519287109375,10.087303877352156
1707029426.974645,0.0,0.0,0.0,0.0,0.003994741635118856,-0.05885586009075116,-0.04314320965928366,-1.481005859375,0.1040771484375,10.2964599609375,0.0,0.0,0.0,0.0,0.0,0.0,0.0,0.0,0.0,0.0,0.0,0.0,0.0,0.0,0.0,0.0,0.0,0.0,0.0,0.0,0.0,0.0,0.0,0.0,0.0,0.0,0.0,1.1732105516409255,0.1040771484375,10.336055489605819
1707029427.007152,0.0,0.0,0.0,0.0,0.0002663161090079238,-0.09454221869781296,-0.03701793915210141,-1.1388671875,0.27753906250000004,10.065576171875,0.0,0.0,0.0,0.0,0.0,0.0,0.0,0.0,0.0,0.0,0.0,0.0,0.0,0.0,0.0,0.0,0.0,0.0,0.0,0.0,0.0,0.0,0.0,0.0,0.0,0.0,0.0,1.4457737119431218,0.27753906250000004,10.026094978426853
1707029427.0093143,0.0,0.0,0.0,0.0,-0.01251685712337242,-0.11451592687340724,-0.032490565298966705,-0.346923828125,-0.1303955078125,9.5810791015625,0.0,0.0,0.0,0.0,0.0,0.0,0.0,0.0,0.0,0.0,0.0,0.0,0.0,0.0,0.0,0.0,0.0,0.0,0.0,0.0,0.0,0.0,0.0,0.0,0.0,0.0,0.0,2.0893078070566404,-0.1303955078125,9.356934635888548
1707029427.0131843,0.0,0.0,0.0,0.0,-0.0023968449810713144,-0.09693906367888429,-0.017576863194522972,0.050244140625,-0.5610595703125001,9.5990234375,0.0,0.0,0.0,0.0,0.0,0.0,0.0,0.0,0.0,0.0,0.0,0.0,0.0,0.0,0.0,0.0,0.0,0.0,0.0,0.0,0.0,0.0,0.0,0.0,0.0,0.0,0.0,2.478086060281895,-0.5610595703125001,9.273772959544461
1707029427.0269,0.0,0.0,0.0,0.0,0.005858954398174322,-0.059921124526782846,-0.023968449810713145,0.02392578125,-0.42109375,9.6947265625,0.0,0.0,0.0,0.0,0.0,0.0,0.0,0.0,0.0,0.0,0.0,0.0,0.0,0.0,0.0,0.0,0.0,0.0,0.0,0.0,0.0,0.0,0.0,0.0,0.0,0.0,0.0,2.4768467101674125,-0.42109375,9.373021174572495
1707029427.0279827,0.0,0.0,0.0,0.0,0.01944107595757844,-0.031691616971942935,-0.026098978682776528,-0.5993408203125,0.27155761718750004,10.1624755859375,0.0,0.0,0.0,0.0,0.0,0.0,0.0,0.0,0.0,0.0,0.0,0.0,0.0,0.0,0.0,0.0,0.0,0.0,0.0,0.0,0.0,0.0,0.0,0.0,0.0,0.0,0.0,1.9922585696545538,0.27155761718750004,9.983287296542487
1707029427.0290637,0.0,0.0,0.0,0.0,0.010918960469324876,-0.028495823663847848,-0.03195793308095086,-0.85654296875,0.5227783203125,10.118212890625,0.0,0.0,0.0,0.0,0.0,0.0,0.0,0.0,0.0,0.0,0.0,0.0,0.0,0.0,0.0,0.0,0.0,0.0,0.0,0.0,0.0,0.0,0.0,0.0,0.0,0.0,0.0,1.732227919564831,0.5227783203125,10.005562672434023
1707029427.0590186,0.0,0.0,0.0,0.0,0.002663161090079238,-0.03701793915210141,-0.016511598758491276,-1.342236328125,0.3648681640625,10.3012451171875,0.0,0.0,0.0,0.0,0.0,0.0,0.0,0.0,0.0,0.0,0.0,0.0,0.0,0.0,0.0,0.0,0.0,0.0,0.0,0.0,0.0,0.0,0.0,0.0,0.0,0.0,0.0,1.3086730019369963,0.3648681640625,10.3055627841918
1707029427.0601518,0.0,0.0,0.0,0.0,-0.013315805450396187,-0.06418218227090965,-0.01731054708551505,-1.385302734375,0.08134765625000001,10.2988525390625,0.0,0.0,0.0,0.0,0.0,0.0,0.0,0.0,0.0,0.0,0.0,0.0,0.0,0.0,0.0,0.0,0.0,0.0,0.0,0.0,0.0,0.0,0.0,0.0,0.0,0.0,0.0,1.2664032387158564,0.08134765625000001,10.314148056150392
1707029427.06126,0.0,0.0,0.0,0.0,-0.011717908796348644,-0.12170646181662116,-0.0037284255261109327,-0.2572021484375,-0.3481201171875,9.5404052734375,0.0,0.0,0.0,0.0,0.0,0.0,0.0,0.0,0.0,0.0,0.0,0.0,0.0,0.0,0.0,0.0,0.0,0.0,0.0,0.0,0.0,0.0,0.0,0.0,0.0,0.0,0.0,2.165813847923509,-0.3481201171875,9.294876873995571
1707029427.0879016,0.0,0.0,0.0,0.0,-0.009054747706269408,-0.09800432811491597,-0.014114753777419962,0.25002441406250003,-0.4701416015625,9.4207763671875,0.0,0.0,0.0,0.0,0.0,0.0,0.0,0.0,0.0,0.0,0.0,0.0,0.0,0.0,0.0,0.0,0.0,0.0,0.0,0.0,0.0,0.0,0.0,0.0,0.0,0.0,0.0,2.6262480198399833,-0.4701416015625,9.050765763540252
1707029427.0889869,0.0,0.0,0.0,0.0,0.007456851052221865,-0.0604537567447987,-0.006657902725198095,0.189013671875,-0.07536621093750001,9.7294189453125,0.0,0.0,0.0,0.0,0.0,0.0,0.0,0.0,0.0,0.0,0.0,0.0,0.0,0.0,0.0,0.0,0.0,0.0,0.0,0.0,0.0,0.0,0.0,0.0,0.0,0.0,0.0,2.6453400323317586,-0.07536621093750001,9.364800867872443
1707029427.090054,0.0,0.0,0.0,0.0,0.005060006071150552,-0.024501082028728992,-0.007190534943213943,-0.35170898437500003,0.33137207031250004,10.213916015625,0.0,0.0,0.0,0.0,0.0,0.0,0.0,0.0,0.0,0.0,0.0,0.0,0.0,0.0,0.0,0.0,0.0,0.0,0.0,0.0,0.0,0.0,0.0,0.0,0.0,0.0,0.0,2.2448471647022448,0.33137207031250004,9.970378166903162
1707029427.1270936,0.0,0.0,0.0,0.0,0.0031957933080950856,-0.0268979270098003,0.0111852765783328,-0.7165771484375001,0.2021728515625,10.2103271484375,0.0,0.0,0.0,0.0,0.0,0.0,0.0,0.0,0.0,0.0,0.0,0.0,0.0,0.0,0.0,0.0,0.0,0.0,0.0,0.0,0.0,0.0,0.0,0.0,0.0,0.0,0.0,1.8909503860682249,0.2021728515625,10.059252950652503
1707029427.128137,0.0,0.0,0.0,0.0,-0.005858954398174322,-0.02157160482964183,0.011717908796348644,-1.3362548828125,-0.0418701171875,10.295263671875,0.0,0.0,0.0,0.0,0.0,0.0,0.0,0.0,0.0,0.0,0.0,0.0,0.0,0.0,0.0,0.0,0.0,0.0,0.0,0.0,0.0,0.0,0.0,0.0,0.0,0.0,0.0,1.3129458158411969,-0.0418701171875,10.298262206311046
1707029427.1330311,0.0,0.0,0.0,0.0,-0.008522115488253561,-0.0625842856168621,0.010652644360316953,-1.193896484375,-0.189013671875,10.166064453125,0.0,0.0,0.0,0.0,0.0,0.0,0.0,0.0,0.0,0.0,0.0,0.0,0.0,0.0,0.0,0.0,0.0,0.0,0.0,0.0,0.0,0.0,0.0,0.0,0.0,0.0,0.0,1.4179693271353742,-0.189013671875,10.137239183712591
1707029427.1679292,0.0,0.0,0.0,0.0,-0.008788431597261486,-0.09161274149872578,0.009054747706269408,-0.5263671875,-0.31940917968750004,9.7724853515625,0.0,0.0,0.0,0.0,0.0,0.0,0.0,0.0,0.0,0.0,0.0,0.0,0.0,0.0,0.0,0.0,0.0,0.0,0.0,0.0,0.0,0.0,0.0,0.0,0.0,0.0,0.0,1.9641511539071788,-0.31940917968750004,9.587525364096066
1707029427.169002,0.0,0.0,0.0,0.0,-0.0002663161090079238,-0.10279801807705859,0.008522115488253561,0.44262695312500006,-0.27753906250000004,9.314306640625,0.0,0.0,0.0,0.0,0.0,0.0,0.0,0.0,0.0,0.0,0.0,0.0,0.0,0.0,0.0,0.0,0.0,0.0,0.0,0.0,0.0,0.0,0.0,0.0,0.0,0.0,0.0,2.7856325281864103,-0.27753906250000004,8.899015576631692
1707029427.1700664,0.0,0.0,0.0,0.0,0.0037284255261109327,-0.044474790204323274,0.006657902725198095,0.141162109375,0.031103515625,9.8251220703125,0.0,0.0,0.0,0.0,0.0,0.0,0.0,0.0,0.0,0.0,0.0,0.0,0.0,0.0,0.0,0.0,0.0,0.0,0.0,0.0,0.0,0.0,0.0,0.0,0.0,0.0,0.0,2.6232685770043624,0.031103515625,9.469499058058272
1707029427.1946976,0.0,0.0,0.0,0.0,0.007456851052221865,-0.03195793308095086,0.02024002428460221,0.09091796875,0.19140625,9.8897216796875,0.0,0.0,0.0,0.0,0.0,0.0,0.0,0.0,0.0,0.0,0.0,0.0,0.0,0.0,0.0,0.0,0.0,0.0,0.0,0.0,0.0,0.0,0.0,0.0,0.0,0.0,0.0,2.5910102569809403,0.19140625,9.544711982398534
1707029427.1957684,0.0,0.0,0.0,0.0,-0.0021305288720633903,0.006657902725198095,0.01944107595757844,-0.84697265625,0.227294921875,10.47470703125,0.0,0.0,0.0,0.0,0.0,0.0,0.0,0.0,0.0,0.0,0.0,0.0,0.0,0.0,0.0,0.0,0.0,0.0,0.0,0.0,0.0,0.0,0.0,0.0,0.0,0.0,0.0,1.8317139994940348,0.227294921875,10.34802753644437
1707029427.1968398,0.0,0.0,0.0,0.0,-0.004793689962142629,-0.024501082028728992,0.030892668644919165,-0.945068359375,-0.19140625,9.965087890625,0.0,0.0,0.0,0.0,0.0,0.0,0.0,0.0,0.0,0.0,0.0,0.0,0.0,0.0,0.0,0.0,0.0,0.0,0.0,0.0,0.0,0.0,0.0,0.0,0.0,0.0,0.0,1.60782944145632,-0.19140625,9.879828711013113
1707029427.2225103,0.0,0.0,0.0,0.0,-0.006657902725198095,-0.017576863194522972,0.017576863194522972,-1.5683349609375,-0.193798828125,10.1959716796875,0.0,0.0,0.0,0.0,0.0,0.0,0.0,0.0,0.0,0.0,0.0,0.0,0.0,0.0,0.0,0.0,0.0,0.0,0.0,0.0,0.0,0.0,0.0,0.0,0.0,0.0,0.0,1.0632915742077367,-0.193798828125,10.26094167564104
1707029427.2235894,0.0,0.0,0.0,0.0,-0.008788431597261486,-0.0671116594699968,0.0111852765783328,-1.18671875,-0.2763427734375,10.03447265625,0.0,0.0,0.0,0.0,0.0,0.0,0.0,0.0,0.0,0.0,0.0,0.0,0.0,0.0,0.0,0.0,0.0,0.0,0.0,0.0,0.0,0.0,0.0,0.0,0.0,0.0,0.0,1.3916079584642767,-0.2763427734375,10.008115215692182
1707029427.2246664,0.0,0.0,0.0,0.0,-0.005326322180158476,-0.09108010928070992,0.012250541014364496,-0.5957519531250001,-0.5455078125,9.857421875,0.0,0.0,0.0,0.0,0.0,0.0,0.0,0.0,0.0,0.0,0.0,0.0,0.0,0.0,0.0,0.0,0.0,0.0,0.0,0.0,0.0,0.0,0.0,0.0,0.0,0.0,0.0,1.918522605787971,-0.5455078125,9.68725747683323
1707029427.2482052,0.0,0.0,0.0,0.0,0.004527373853134705,-0.10040117309598728,0.005858954398174322,0.346923828125,-0.44501953125,9.4351318359375,0.0,0.0,0.0,0.0,0.0,0.0,0.0,0.0,0.0,0.0,0.0,0.0,0.0,0.0,0.0,0.0,0.0,0.0,0.0,0.0,0.0,0.0,0.0,0.0,0.0,0.0,0.0,2.723625810069962,-0.44501953125,9.040128945472127
1707029427.2492807,0.0,0.0,0.0,0.0,0.0111852765783328,-0.04234426133225989,0.0042610577441267805,-0.0071777343750000005,-0.0657958984375,10.048828125,0.0,0.0,0.0,0.0,0.0,0.0,0.0,0.0,0.0,0.0,0.0,0.0,0.0,0.0,0.0,0.0,0.0,0.0,0.0,0.0,0.0,0.0,0.0,0.0,0.0,0.0,0.0,2.5363777052324665,-0.0657958984375,9.723465757746126
1707029427.2503738,0.0,0.0,0.0,0.0,0.011717908796348644,-0.03222424918995878,0.004793689962142629,-0.019140625,0.155517578125,9.8418701171875,0.0,0.0,0.0,0.0,0.0,0.0,0.0,0.0,0.0,0.0,0.0,0.0,0.0,0.0,0.0,0.0,0.0,0.0,0.0,0.0,0.0,0.0,0.0,0.0,0.0,0.0,0.0,2.47242399665317,0.155517578125,9.526273843842999
1707029427.269742,0.0,0.0,0.0,0.0,0.0055926382891664,0.009853696033293181,-0.0031957933080950856,-0.976171875,0.2045654296875,10.2151123046875,0.0,0.0,0.0,0.0,0.0,0.0,0.0,0.0,0.0,0.0,0.0,0.0,0.0,0.0,0.0,0.0,0.0,0.0,0.0,0.0,0.0,0.0,0.0,0.0,0.0,0.0,0.0,1.641018889925374,0.2045654296875,10.129584785657658
1707029427.2708552,0.0,0.0,0.0,0.0,-0.0018642127630554663,-0.008522115488253561,-0.002929477199087161,-1.4546875,-0.083740234375,10.1911865234375,0.0,0.0,0.0,0.0,0.0,0.0,0.0,0.0,0.0,0.0,0.0,0.0,0.0,0.0,0.0,0.0,0.0,0.0,0.0,0.0,0.0,0.0,0.0,0.0,0.0,0.0,0.0,1.1720276905741662,-0.083740234375,10.227548561149819
1707029427.271923,0.0,0.0,0.0,0.0,-0.010918960469324876,-0.03542004249805387,-0.012250541014364496,-1.49296875,-0.3265869140625,9.9830322265625,0.0,0.0,0.0,0.0,0.0,0.0,0.0,0.0,0.0,0.0,0.0,0.0,0.0,0.0,0.0,0.0,0.0,0.0,0.0,0.0,0.0,0.0,0.0,0.0,0.0,0.0,0.0,1.0823097436703177,-0.3265869140625,10.03586038881661
1707029427.3085976,0.0,0.0,0.0,0.0,-0.00346210941710301,-0.0692421883420602,-0.009321063815277331,-1.294384765625,-0.605322265625,9.907666015625,0.0,0.0,0.0,0.0,0.0,0.0,0.0,0.0,0.0,0.0,0.0,0.0,0.0,0.0,0.0,0.0,0.0,0.0,0.0,0.0,0.0,0.0,0.0,0.0,0.0,0.0,0.0,1.2553531342482558,-0.605322265625,9.91268713856065
1707029427.3182418,0.0,0.0,0.0,0.0,0.005060006071150552,-0.090813793171702,-0.017576863194522972,-0.921142578125,-0.5347412109375,10.0141357421875,0.0,0.0,0.0,0.0,0.0,0.0,0.0,0.0,0.0,0.0,0.0,0.0,0.0,0.0,0.0,0.0,0.0,0.0,0.0,0.0,0.0,0.0,0.0,0.0,0.0,0.0,0.0,1.6433900573300875,-0.5347412109375,9.921224089378317
1707029427.3205771,0.0,0.0,0.0,0.0,0.016245282649483352,-0.10386328251309028,-0.02503371424674484,-0.33376464843750003,-0.25361328125000004,9.805981445312499,0.0,0.0,0.0,0.0,0.0,0.0,0.0,0.0,0.0,0.0,0.0,0.0,0.0,0.0,0.0,0.0,0.0,0.0,0.0,0.0,0.0,0.0,0.0,0.0,0.0,0.0,0.0,2.1589605007792603,-0.25361328125000004,9.571183861071448
1707029427.3411403,0.0,0.0,0.0,0.0,0.017843179303530896,-0.08761799986360692,-0.0346210941710301,-0.1040771484375,0.217724609375,10.00576171875,0.0,0.0,0.0,0.0,0.0,0.0,0.0,0.0,0.0,0.0,0.0,0.0,0.0,0.0,0.0,0.0,0.0,0.0,0.0,0.0,0.0,0.0,0.0,0.0,0.0,0.0,0.0,2.4317332814587647,0.217724609375,9.706326435530364
1707029427.3422127,0.0,0.0,0.0,0.0,0.006391586616190171,-0.06791060779702057,-0.04101268078722026,0.074169921875,0.26557617187500004,9.949536132812499,0.0,0.0,0.0,0.0,0.0,0.0,0.0,0.0,0.0,0.0,0.0,0.0,0.0,0.0,0.0,0.0,0.0,0.0,0.0,0.0,0.0,0.0,0.0,0.0,0.0,0.0,0.0,2.5899463283647655,0.26557617187500004,9.606817810890467
1707029427.3433647,0.0,0.0,0.0,0.0,0.0005326322180158476,-0.043675841877299504,-0.022903185374681445,-0.217724609375,-0.160302734375,9.978247070312499,0.0,0.0,0.0,0.0,0.0,0.0,0.0,0.0,0.0,0.0,0.0,0.0,0.0,0.0,0.0,0.0,0.0,0.0,0.0,0.0,0.0,0.0,0.0,0.0,0.0,0.0,0.0,2.314822202355645,-0.160302734375,9.708471392202215
1707029427.3677948,0.0,0.0,0.0,0.0,0.003994741635118856,-0.03941478413317272,-0.011984224905356573,-0.57421875,-0.3792236328125,10.0332763671875,0.0,0.0,0.0,0.0,0.0,0.0,0.0,0.0,0.0,0.0,0.0,0.0,0.0,0.0,0.0,0.0,0.0,0.0,0.0,0.0,0.0,0.0,0.0,0.0,0.0,0.0,0.0,1.9838628414561958,-0.3792236328125,9.851936360914241
1707029427.368821,0.0,0.0,0.0,0.0,0.014647385995435807,-0.05166532514753722,-0.006125270507182248,-0.528759765625,-0.141162109375,9.797607421875,0.0,0.0,0.0,0.0,0.0,0.0,0.0,0.0,0.0,0.0,0.0,0.0,0.0,0.0,0.0,0.0,0.0,0.0,0.0,0.0,0.0,0.0,0.0,0.0,0.0,0.0,0.0,1.968194779900947,-0.141162109375,9.612435039639777
1707029427.3698983,0.0,0.0,0.0,0.0,0.014913702104443732,-0.059921124526782846,-0.014381069886427884,-0.4294677734375,0.2117431640625,9.901684570312499,0.0,0.0,0.0,0.0,0.0,0.0,0.0,0.0,0.0,0.0,0.0,0.0,0.0,0.0,0.0,0.0,0.0,0.0,0.0,0.0,0.0,0.0,0.0,0.0,0.0,0.0,0.0,2.0905954783120535,0.2117431640625,9.687993107163484
1707029427.388417,0.0,0.0,0.0,0.0,0.006125270507182248,-0.06125270507182247,-0.02769687533682408,-0.36845703125,0.38879394531250006,10.0691650390625,0.0,0.0,0.0,0.0,0.0,0.0,0.0,0.0,0.0,0.0,0.0,0.0,0.0,0.0,0.0,0.0,0.0,0.0,0.0,0.0,0.0,0.0,0.0,0.0,0.0,0.0,0.0,2.192008472087036,0.38879394531250006,9.834578995872409
1707029427.389538,0.0,0.0,0.0,0.0,0.0010652644360316951,-0.07137271721412358,-0.02024002428460221,0.1040771484375,0.189013671875,9.884936523437501,0.0,0.0,0.0,0.0,0.0,0.0,0.0,0.0,0.0,0.0,0.0,0.0,0.0,0.0,0.0,0.0,0.0,0.0,0.0,0.0,0.0,0.0,0.0,0.0,0.0,0.0,0.0,2.602529882353768,0.189013671875,9.536752085310347
1707029427.3909793,0.0,0.0,0.0,0.0,0.0015978966540475428,-0.05060006071150552,-0.007456851052221865,0.09091796875,0.217724609375,10.003369140625,0.0,0.0,0.0,0.0,0.0,0.0,0.0,0.0,0.0,0.0,0.0,0.0,0.0,0.0,0.0,0.0,0.0,0.0,0.0,0.0,0.0,0.0,0.0,0.0,0.0,0.0,0.0,2.619774014758182,0.217724609375,9.654659204355584
1707029427.4302835,0.0,0.0,0.0,0.0,0.0,-0.033289513625990474,0.007190534943213943,-0.1303955078125,0.25002441406250003,10.0966796875,0.0,0.0,0.0,0.0,0.0,0.0,0.0,0.0,0.0,0.0,0.0,0.0,0.0,0.0,0.0,0.0,0.0,0.0,0.0,0.0,0.0,0.0,0.0,0.0,0.0,0.0,0.0,2.429282825753662,0.25002441406250003,9.800945293844421
1707029427.4313357,0.0,0.0,0.0,0.0,-0.0007989483270237714,-0.03675162304309349,0.015712650431467506,-0.1997802734375,0.2787353515625,9.9399658203125,0.0,0.0,0.0,0.0,0.0,0.0,0.0,0.0,0.0,0.0,0.0,0.0,0.0,0.0,0.0,0.0,0.0,0.0,0.0,0.0,0.0,0.0,0.0,0.0,0.0,0.0,0.0,2.3224934453081088,0.2787353515625,9.66689489252554
1707029427.4328516,0.0,0.0,0.0,0.0,-0.010386328251309028,-0.03302319751698255,0.004793689962142629,-0.210546875,0.28232421875,9.884936523437501,0.0,0.0,0.0,0.0,0.0,0.0,0.0,0.0,0.0,0.0,0.0,0.0,0.0,0.0,0.0,0.0,0.0,0.0,0.0,0.0,0.0,0.0,0.0,0.0,0.0,0.0,0.0,2.2981496784095143,0.28232421875,9.616382277893656
1707029427.44741,0.0,0.0,0.0,0.0,-0.011717908796348644,-0.038083203588133115,0.011717908796348644,0.0107666015625,0.033496093750000004,9.715063476562499,0.0,0.0,0.0,0.0,0.0,0.0,0.0,0.0,0.0,0.0,0.0,0.0,0.0,0.0,0.0,0.0,0.0,0.0,0.0,0.0,0.0,0.0,0.0,0.0,0.0,0.0,0.0,2.4692631779641023,0.033496093750000004,9.39602648098112
1707029427.4484823,0.0,0.0,0.0,0.0,-0.015180018213451656,-0.02050634039361013,0.0055926382891664,-0.25959472656250004,-0.0992919921875,10.13017578125,0.0,0.0,0.0,0.0,0.0,0.0,0.0,0.0,0.0,0.0,0.0,0.0,0.0,0.0,0.0,0.0,0.0,0.0,0.0,0.0,0.0,0.0,0.0,0.0,0.0,0.0,0.0,2.3127679336105182,-0.0992919921875,9.866050641789045
1707029427.4495497,0.0,0.0,0.0,0.0,-0.009587379924285256,-0.030892668644919165,0.017576863194522972,-0.0107666015625,-0.2045654296875,9.79521484375,0.0,0.0,0.0,0.0,0.0,0.0,0.0,0.0,0.0,0.0,0.0,0.0,0.0,0.0,0.0,0.0,0.0,0.0,0.0,0.0,0.0,0.0,0.0,0.0,0.0,0.0,0.0,2.4687170913940846,-0.2045654296875,9.479018181098095
1707029427.4879732,0.0,0.0,0.0,0.0,-0.007456851052221865,-0.007190534943213943,0.019174759848570515,-0.4462158203125,-0.193798828125,10.1026611328125,0.0,0.0,0.0,0.0,0.0,0.0,0.0,0.0,0.0,0.0,0.0,0.0,0.0,0.0,0.0,0.0,0.0,0.0,0.0,0.0,0.0,0.0,0.0,0.0,0.0,0.0,0.0,2.1252591646191887,-0.193798828125,9.88666495871786
1707029427.4890387,0.0,0.0,0.0,0.0,-0.006125270507182248,-0.011451592687340723,0.013315805450396187,-0.624462890625,-0.112451171875,10.1026611328125,0.0,0.0,0.0,0.0,0.0,0.0,0.0,0.0,0.0,0.0,0.0,0.0,0.0,0.0,0.0,0.0,0.0,0.0,0.0,0.0,0.0,0.0,0.0,0.0,0.0,0.0,0.0,1.9528156270233947,-0.112451171875,9.931778641968481
1707029427.4900997,0.0,0.0,0.0,0.0,-0.010120012142301104,-0.016245282649483352,0.011717908796348644,-0.8732910156250001,-0.136376953125,10.3227783203125,0.0,0.0,0.0,0.0,0.0,0.0,0.0,0.0,0.0,0.0,0.0,0.0,0.0,0.0,0.0,0.0,0.0,0.0,0.0,0.0,0.0,0.0,0.0,0.0,0.0,0.0,0.0,1.7677999350649316,-0.136376953125,10.207706541523885
1707029427.5366447,0.0,0.0,0.0,0.0,-0.010120012142301104,-0.05965480841777493,0.014647385995435807,-0.17705078125,-0.3840087890625,9.837084960937501,0.0,0.0,0.0,0.0,0.0,0.0,0.0,0.0,0.0,0.0,0.0,0.0,0.0,0.0,0.0,0.0,0.0,0.0,0.0,0.0,0.0,0.0,0.0,0.0,0.0,0.0,0.0,2.3184441195011747,-0.3840087890625,9.561610971619501
1707029427.5377119,0.0,0.0,0.0,0.0,-0.009054747706269408,-0.04580637074936289,0.008255799379245636,0.1854248046875,-0.5239746093750001,9.673193359375,0.0,0.0,0.0,0.0,0.0,0.0,0.0,0.0,0.0,0.0,0.0,0.0,0.0,0.0,0.0,0.0,0.0,0.0,0.0,0.0,0.0,0.0,0.0,0.0,0.0,0.0,0.0,2.62763752410648,-0.5239746093750001,9.311314255676132
1707029427.5388343,0.0,0.0,0.0,0.0,0.0021305288720633903,-0.02902845588186369,0.010120012142301104,0.480908203125,-0.4689453125,9.4375244140625,0.0,0.0,0.0,0.0,0.0,0.0,0.0,0.0,0.0,0.0,0.0,0.0,0.0,0.0,0.0,0.0,0.0,0.0,0.0,0.0,0.0,0.0,0.0,0.0,0.0,0.0,0.0,2.853853350856741,-0.4689453125,9.008532667291737
1707029427.5410748,0.0,0.0,0.0,0.0,0.006657902725198095,0.02716424311880823,0.003994741635118856,-0.34931640625000004,-0.05383300781250001,10.0763427734375,0.0,0.0,0.0,0.0,0.0,0.0,0.0,0.0,0.0,0.0,0.0,0.0,0.0,0.0,0.0,0.0,0.0,0.0,0.0,0.0,0.0,0.0,0.0,0.0,0.0,0.0,0.0,2.212342557328891,-0.05383300781250001,9.836678608580897
1707029427.5421484,0.0,0.0,0.0,0.0,0.008788431597261486,0.021837920938649752,0.011451592687340723,-0.7943359375,0.0992919921875,10.137353515625,0.0,0.0,0.0,0.0,0.0,0.0,0.0,0.0,0.0,0.0,0.0,0.0,0.0,0.0,0.0,0.0,0.0,0.0,0.0,0.0,0.0,0.0,0.0,0.0,0.0,0.0,0.0,1.7972539792090674,0.0992919921875,10.008335726611879
1707029427.5432208,0.0,0.0,0.0,0.0,0.0015978966540475428,0.021837920938649752,0.013315805450396187,-1.5085205078125,-0.0370849609375,10.395751953125,0.0,0.0,0.0,0.0,0.0,0.0,0.0,0.0,0.0,0.0,0.0,0.0,0.0,0.0,0.0,0.0,0.0,0.0,0.0,0.0,0.0,0.0,0.0,0.0,0.0,0.0,0.0,1.1717221915409137,-0.0370849609375,10.439078498566992
1707029427.570582,0.0,0.0,0.0,0.0,-0.0005326322180158476,-0.023435817592697288,0.007456851052221865,-1.227392578125,-0.07536621093750001,9.9614990234375,0.0,0.0,0.0,0.0,0.0,0.0,0.0,0.0,0.0,0.0,0.0,0.0,0.0,0.0,0.0,0.0,0.0,0.0,0.0,0.0,0.0,0.0,0.0,0.0,0.0,0.0,0.0,1.333789066138473,-0.07536621093750001,9.947811923324249
1707029427.5716856,0.0,0.0,0.0,0.0,-0.004793689962142629,-0.02423476591972107,0.0015978966540475428,-1.68916015625,0.02392578125,10.54169921875,0.0,0.0,0.0,0.0,0.0,0.0,0.0,0.0,0.0,0.0,0.0,0.0,0.0,0.0,0.0,0.0,0.0,0.0,0.0,0.0,0.0,0.0,0.0,0.0,0.0,0.0,0.0,1.0339026961020599,0.02392578125,10.625993114389345
1707029427.5727823,0.0,0.0,0.0,0.0,-0.008255799379245636,-0.108390656366225,-0.0007989483270237714,-0.3768310546875,-0.404345703125,9.8897216796875,0.0,0.0,0.0,0.0,0.0,0.0,0.0,0.0,0.0,0.0,0.0,0.0,0.0,0.0,0.0,0.0,0.0,0.0,0.0,0.0,0.0,0.0,0.0,0.0,0.0,0.0,0.0,2.1384906381892934,-0.404345703125,9.663097553881705
1707029427.6071384,0.0,0.0,0.0,0.0,-0.007190534943213943,-0.10599381138515367,-0.013049489341388264,0.758447265625,-0.7620361328125,9.6073974609375,0.0,0.0,0.0,0.0,0.0,0.0,0.0,0.0,0.0,0.0,0.0,0.0,0.0,0.0,0.0,0.0,0.0,0.0,0.0,0.0,0.0,0.0,0.0,0.0,0.0,0.0,0.0,3.1653502887346763,-0.7620361328125,9.102630706382065
1707029427.6082144,0.0,0.0,0.0,0.0,0.011984224905356573,-0.07190534943213943,-0.004527373853134705,1.6329345703125002,-0.514404296875,9.256884765625,0.0,0.0,0.0,0.0,0.0,0.0,0.0,0.0,0.0,0.0,0.0,0.0,0.0,0.0,0.0,0.0,0.0,0.0,0.0,0.0,0.0,0.0,0.0,0.0,0.0,0.0,0.0,3.9226517437017465,-0.514404296875,8.542200780397023
1707029427.609882,0.0,0.0,0.0,0.0,0.018109495412538815,0.01597896654047543,-0.009321063815277331,1.021630859375,0.198583984375,9.759326171875,0.0,0.0,0.0,0.0,0.0,0.0,0.0,0.0,0.0,0.0,0.0,0.0,0.0,0.0,0.0,0.0,0.0,0.0,0.0,0.0,0.0,0.0,0.0,0.0,0.0,0.0,0.0,3.45841751050584,0.198583984375,9.183001974566825
1707029427.6480062,0.0,0.0,0.0,0.0,0.02050634039361013,0.056991647327695696,0.010652644360316953,0.0897216796875,0.452197265625,10.0392578125,0.0,0.0,0.0,0.0,0.0,0.0,0.0,0.0,0.0,0.0,0.0,0.0,0.0,0.0,0.0,0.0,0.0,0.0,0.0,0.0,0.0,0.0,0.0,0.0,0.0,0.0,0.0,2.6276999675093418,0.452197265625,9.689682156108097
1707029427.6491158,0.0,0.0,0.0,0.0,0.006125270507182248,0.08069378102940093,0.011451592687340723,-1.2190185546875,0.212939453125,10.4136962890625,0.0,0.0,0.0,0.0,0.0,0.0,0.0,0.0,0.0,0.0,0.0,0.0,0.0,0.0,0.0,0.0,0.0,0.0,0.0,0.0,0.0,0.0,0.0,0.0,0.0,0.0,0.0,1.4563399187015942,0.212939453125,10.38316669801187
1707029427.6501713,0.0,0.0,0.0,0.0,-0.0005326322180158476,0.03142530086293501,0.014114753777419962,-1.6448974609375002,-0.1375732421875,10.3825927734375,0.0,0.0,0.0,0.0,0.0,0.0,0.0,0.0,0.0,0.0,0.0,0.0,0.0,0.0,0.0,0.0,0.0,0.0,0.0,0.0,0.0,0.0,0.0,0.0,0.0,0.0,0.0,1.0364549848182463,-0.1375732421875,10.460864276936235
1707029427.6671324,0.0,0.0,0.0,0.0,-0.00346210941710301,-0.01731054708551505,0.0023968449810713144,-1.435546875,-0.1997802734375,10.0284912109375,0.0,0.0,0.0,0.0,0.0,0.0,0.0,0.0,0.0,0.0,0.0,0.0,0.0,0.0,0.0,0.0,0.0,0.0,0.0,0.0,0.0,0.0,0.0,0.0,0.0,0.0,0.0,1.1493675273489865,-0.1997802734375,10.065306010511982
1707029427.668208,0.0,0.0,0.0,0.0,-0.0015978966540475428,-0.06737797557900473,-0.00692421883420602,-0.7117919921875,-0.3050537109375,9.91005859375,0.0,0.0,0.0,0.0,0.0,0.0,0.0,0.0,0.0,0.0,0.0,0.0,0.0,0.0,0.0,0.0,0.0,0.0,0.0,0.0,0.0,0.0,0.0,0.0,0.0,0.0,0.0,1.8195828669707579,-0.3050537109375,9.767549711259573
1707029427.6692843,0.0,0.0,0.0,0.0,0.0005326322180158476,-0.08442220655551187,-0.016245282649483352,0.3720458984375,-0.29189453125000003,9.619360351562499,0.0,0.0,0.0,0.0,0.0,0.0,0.0,0.0,0.0,0.0,0.0,0.0,0.0,0.0,0.0,0.0,0.0,0.0,0.0,0.0,0.0,0.0,0.0,0.0,0.0,0.0,0.0,2.794557498057258,-0.29189453125000003,9.212000874609638
1707029427.708475,0.0,0.0,0.0,0.0,0.008255799379245636,-0.05166532514753722,-0.009587379924285256,1.016845703125,-0.083740234375,9.42197265625,0.0,0.0,0.0,0.0,0.0,0.0,0.0,0.0,0.0,0.0,0.0,0.0,0.0,0.0,0.0,0.0,0.0,0.0,0.0,0.0,0.0,0.0,0.0,0.0,0.0,0.0,0.0,3.368405209653101,-0.083740234375,8.857843431821783
1707029427.7095492,0.0,0.0,0.0,0.0,0.010652644360316953,0.012783173232380343,-0.0002663161090079238,0.5455078125,0.2093505859375,10.0428466796875,0.0,0.0,0.0,0.0,0.0,0.0,0.0,0.0,0.0,0.0,0.0,0.0,0.0,0.0,0.0,0.0,0.0,0.0,0.0,0.0,0.0,0.0,0.0,0.0,0.0,0.0,0.0,3.0695545237090016,0.2093505859375,9.577796366136962
1707029427.7105875,0.0,0.0,0.0,0.0,0.00772316716122979,0.04580637074936289,0.009587379924285256,-0.1997802734375,0.27993164062500003,10.204345703125,0.0,0.0,0.0,0.0,0.0,0.0,0.0,0.0,0.0,0.0,0.0,0.0,0.0,0.0,0.0,0.0,0.0,0.0,0.0,0.0,0.0,0.0,0.0,0.0,0.0,0.0,0.0,2.389407029189902,0.27993164062500003,9.922666850972995
1707029427.7270355,0.0,0.0,0.0,0.0,0.0042610577441267805,0.04554005464035497,0.005858954398174322,-0.8170654296875,0.22490234375,10.0308837890625,0.0,0.0,0.0,0.0,0.0,0.0,0.0,0.0,0.0,0.0,0.0,0.0,0.0,0.0,0.0,0.0,0.0,0.0,0.0,0.0,0.0,0.0,0.0,0.0,0.0,0.0,0.0,1.748317435426347,0.22490234375,9.911085291281248
1707029427.7281883,0.0,0.0,0.0,0.0,-0.001331580545039619,0.03302319751698255,-0.00772316716122979,-1.447509765625,0.2548095703125,10.357470703125,0.0,0.0,0.0,0.0,0.0,0.0,0.0,0.0,0.0,0.0,0.0,0.0,0.0,0.0,0.0,0.0,0.0,0.0,0.0,0.0,0.0,0.0,0.0,0.0,0.0,0.0,0.0,1.221057644919206,0.2548095703125,10.38660204857473
1707029427.7292569,0.0,0.0,0.0,0.0,-0.012250541014364496,-0.021305288720633905,-0.015712650431467506,-0.854150390625,0.0011962890625,9.8945068359375,0.0,0.0,0.0,0.0,0.0,0.0,0.0,0.0,0.0,0.0,0.0,0.0,0.0,0.0,0.0,0.0,0.0,0.0,0.0,0.0,0.0,0.0,0.0,0.0,0.0,0.0,0.0,1.6779234115603048,0.0011962890625,9.7885346932601
1707029427.7672305,0.0,0.0,0.0,0.0,-0.01944107595757844,-0.03222424918995878,-0.01731054708551505,-0.5239746093750001,-0.35529785156250004,9.8251220703125,0.0,0.0,0.0,0.0,0.0,0.0,0.0,0.0,0.0,0.0,0.0,0.0,0.0,0.0,0.0,0.0,0.0,0.0,0.0,0.0,0.0,0.0,0.0,0.0,0.0,0.0,0.0,1.979787993760997,-0.35529785156250004,9.637842735154546
1707029427.7684567,0.0,0.0,0.0,0.0,-0.006391586616190171,-0.04127899689622819,-0.001331580545039619,0.1806396484375,-0.476123046875,9.593041992187501,0.0,0.0,0.0,0.0,0.0,0.0,0.0,0.0,0.0,0.0,0.0,0.0,0.0,0.0,0.0,0.0,0.0,0.0,0.0,0.0,0.0,0.0,0.0,0.0,0.0,0.0,0.0,2.602722148749603,-0.476123046875,9.234983636307572
1707029427.7695267,0.0,0.0,0.0,0.0,0.003994741635118856,0.0031957933080950856,0.003994741635118856,-0.2404541015625,-0.08134765625000001,10.0954833984375,0.0,0.0,0.0,0.0,0.0,0.0,0.0,0.0,0.0,0.0,0.0,0.0,0.0,0.0,0.0,0.0,0.0,0.0,0.0,0.0,0.0,0.0,0.0,0.0,0.0,0.0,0.0,2.3225048449344423,-0.08134765625000001,9.8276433832502
1707029427.7865324,0.0,0.0,0.0,0.0,0.0042610577441267805,0.0010652644360316951,-0.0023968449810713144,-0.29787597656250003,0.0968994140625,10.1385498046875,0.0,0.0,0.0,0.0,0.0,0.0,0.0,0.0,0.0,0.0,0.0,0.0,0.0,0.0,0.0,0.0,0.0,0.0,0.0,0.0,0.0,0.0,0.0,0.0,0.0,0.0,0.0,2.277852514682256,0.0968994140625,9.883840860763478
1707029427.787622,0.0,0.0,0.0,0.0,-0.00772316716122979,0.013582121559404116,-0.0167779148674992,-0.768017578125,-0.1435546875,10.3945556640625,0.0,0.0,0.0,0.0,0.0,0.0,0.0,0.0,0.0,0.0,0.0,0.0,0.0,0.0,0.0,0.0,0.0,0.0,0.0,0.0,0.0,0.0,0.0,0.0,0.0,0.0,0.0,1.8878123666318247,-0.1435546875,10.250502569239947
1707029427.7886863,0.0,0.0,0.0,0.0,-0.008255799379245636,-0.030093720317895388,-0.017843179303530896,-0.031103515625,-0.538330078125,9.668408203125,0.0,0.0,0.0,0.0,0.0,0.0,0.0,0.0,0.0,0.0,0.0,0.0,0.0,0.0,0.0,0.0,0.0,0.0,0.0,0.0,0.0,0.0,0.0,0.0,0.0,0.0,0.0,2.4169480272082176,-0.538330078125,9.361487426937737
1707029427.8269155,0.0,0.0,0.0,0.0,0.0031957933080950856,-0.005858954398174322,-0.009054747706269408,-0.117236328125,-0.44501953125,9.7677001953125,0.0,0.0,0.0,0.0,0.0,0.0,0.0,0.0,0.0,0.0,0.0,0.0,0.0,0.0,0.0,0.0,0.0,0.0,0.0,0.0,0.0,0.0,0.0,0.0,0.0,0.0,0.0,2.3587500473619376,-0.44501953125,9.479346479384017
1707029427.827933,0.0,0.0,0.0,0.0,0.012783173232380343,-0.010120012142301104,-0.0005326322180158476,0.31940917968750004,0.0287109375,9.443505859375,0.0,0.0,0.0,0.0,0.0,0.0,0.0,0.0,0.0,0.0,0.0,0.0,0.0,0.0,0.0,0.0,0.0,0.0,0.0,0.0,0.0,0.0,0.0,0.0,0.0,0.0,0.0,2.699126443748156,0.0287109375,9.055194176867662
1707029427.8290155,0.0,0.0,0.0,0.0,0.0111852765783328,0.038083203588133115,0.005858954398174322,-0.42587890625,0.4749267578125,10.1050537109375,0.0,0.0,0.0,0.0,0.0,0.0,0.0,0.0,0.0,0.0,0.0,0.0,0.0,0.0,0.0,0.0,0.0,0.0,0.0,0.0,0.0,0.0,0.0,0.0,0.0,0.0,0.0,2.1455394834489185,0.4749267578125,9.883832438314714
1707029427.8476715,0.0,0.0,0.0,0.0,0.0,0.02636529479178445,0.005060006071150552,-0.7189697265625,0.3983642578125,10.3036376953125,0.0,0.0,0.0,0.0,0.0,0.0,0.0,0.0,0.0,0.0,0.0,0.0,0.0,0.0,0.0,0.0,0.0,0.0,0.0,0.0,0.0,0.0,0.0,0.0,0.0,0.0,0.0,1.9122522667283377,0.3983642578125,10.150130959370443
1707029427.8487847,0.0,0.0,0.0,0.0,-0.00692421883420602,0.021038972611625986,0.004793689962142629,-0.9797607421875002,0.1052734375,10.240234375,0.0,0.0,0.0,0.0,0.0,0.0,0.0,0.0,0.0,0.0,0.0,0.0,0.0,0.0,0.0,0.0,0.0,0.0,0.0,0.0,0.0,0.0,0.0,0.0,0.0,0.0,0.0,1.6439051767406465,0.1052734375,10.154797237599023
1707029427.8498647,0.0,0.0,0.0,0.0,-0.011717908796348644,-0.0005326322180158476,0.001331580545039619,-1.198681640625,-0.0107666015625,10.472314453125,0.0,0.0,0.0,0.0,0.0,0.0,0.0,0.0,0.0,0.0,0.0,0.0,0.0,0.0,0.0,0.0,0.0,0.0,0.0,0.0,0.0,0.0,0.0,0.0,0.0,0.0,0.0,1.4908507282211172,-0.0107666015625,10.434729118997998
1707029427.8869147,0.0,0.0,0.0,0.0,-0.014114753777419962,-0.04207794522325197,0.004527373853134705,-0.4438232421875,-0.3828125,9.8251220703125,0.0,0.0,0.0,0.0,0.0,0.0,0.0,0.0,0.0,0.0,0.0,0.0,0.0,0.0,0.0,0.0,0.0,0.0,0.0,0.0,0.0,0.0,0.0,0.0,0.0,0.0,0.0,2.0573297187201796,-0.3828125,9.61755671651165
1707029427.8887565,0.0,0.0,0.0,0.0,-0.006391586616190171,-0.05166532514753722,0.00346210941710301,0.28232421875,-0.4055419921875,9.5523681640625,0.0,0.0,0.0,0.0,0.0,0.0,0.0,0.0,0.0,0.0,0.0,0.0,0.0,0.0,0.0,0.0,0.0,0.0,0.0,0.0,0.0,0.0,0.0,0.0,0.0,0.0,0.0,2.690801581401424,-0.4055419921875,9.169898110438043
1707029427.889838,0.0,0.0,0.0,0.0,-0.0037284255261109327,-0.027963191445832,0.00346210941710301,0.9031982421875,-0.40075683593750006,9.3489990234375,0.0,0.0,0.0,0.0,0.0,0.0,0.0,0.0,0.0,0.0,0.0,0.0,0.0,0.0,0.0,0.0,0.0,0.0,0.0,0.0,0.0,0.0,0.0,0.0,0.0,0.0,0.0,3.2399886274390854,-0.40075683593750006,8.816009499710812
1707029427.9098258,0.0,0.0,0.0,0.0,0.006657902725198095,0.031691616971942935,0.0167779148674992,0.3289794921875,-0.27275390625,9.98662109375,0.0,0.0,0.0,0.0,0.0,0.0,0.0,0.0,0.0,0.0,0.0,0.0,0.0,0.0,0.0,0.0,0.0,0.0,0.0,0.0,0.0,0.0,0.0,0.0,0.0,0.0,0.0,2.8458456417115663,-0.27275390625,9.57820395272327
1707029427.9109008,0.0,0.0,0.0,0.0,0.010652644360316953,0.04181162911424404,0.01970739206658636,-0.0442626953125,-0.058618164062500006,10.2821044921875,0.0,0.0,0.0,0.0,0.0,0.0,0.0,0.0,0.0,0.0,0.0,0.0,0.0,0.0,0.0,0.0,0.0,0.0,0.0,0.0,0.0,0.0,0.0,0.0,0.0,0.0,0.0,2.559541588241872,-0.058618164062500006,9.958532965880012
1707029427.911972,0.0,0.0,0.0,0.0,0.010120012142301104,0.051399009038529286,0.02769687533682408,-0.7046142578125001,0.0227294921875,10.3586669921875,0.0,0.0,0.0,0.0,0.0,0.0,0.0,0.0,0.0,0.0,0.0,0.0,0.0,0.0,0.0,0.0,0.0,0.0,0.0,0.0,0.0,0.0,0.0,0.0,0.0,0.0,0.0,1.9400680511624184,0.0227294921875,10.199735244809364
1707029427.9501903,0.0,0.0,0.0,0.0,0.004527373853134705,0.02370213370170522,0.02157160482964183,-0.6794921875000001,-0.1638916015625,10.056005859375,0.0,0.0,0.0,0.0,0.0,0.0,0.0,0.0,0.0,0.0,0.0,0.0,0.0,0.0,0.0,0.0,0.0,0.0,0.0,0.0,0.0,0.0,0.0,0.0,0.0,0.0,0.0,1.8877697453040612,-0.1638916015625,9.900570128299304
1707029427.9512615,0.0,0.0,0.0,0.0,-0.0007989483270237714,0.02157160482964183,0.009587379924285256,-0.84697265625,-0.299072265625,9.973461914062499,0.0,0.0,0.0,0.0,0.0,0.0,0.0,0.0,0.0,0.0,0.0,0.0,0.0,0.0,0.0,0.0,0.0,0.0,0.0,0.0,0.0,0.0,0.0,0.0,0.0,0.0,0.0,1.7048506888765176,-0.299072265625,9.863102420654855
1707029427.9523282,0.0,0.0,0.0,0.0,0.0055926382891664,-0.010918960469324876,0.014381069886427884,-0.189013671875,-0.3923828125,9.5224609375,0.0,0.0,0.0,0.0,0.0,0.0,0.0,0.0,0.0,0.0,0.0,0.0,0.0,0.0,0.0,0.0,0.0,0.0,0.0,0.0,0.0,0.0,0.0,0.0,0.0,0.0,0.0,2.227240535132912,-0.3923828125,9.260258531651797
1707029427.9817772,0.0,0.0,0.0,0.0,0.010652644360316953,0.012250541014364496,0.011451592687340723,-0.322998046875,-0.133984375,10.00576171875,0.0,0.0,0.0,0.0,0.0,0.0,0.0,0.0,0.0,0.0,0.0,0.0,0.0,0.0,0.0,0.0,0.0,0.0,0.0,0.0,0.0,0.0,0.0,0.0,0.0,0.0,0.0,2.219940211794132,-0.133984375,9.761734516301262
1707029427.9833043,0.0,0.0,0.0,0.0,0.011717908796348644,0.0015978966540475428,0.01384843766841204,-0.05383300781250001,0.029907226562500003,10.0117431640625,0.0,0.0,0.0,0.0,0.0,0.0,0.0,0.0,0.0,0.0,0.0,0.0,0.0,0.0,0.0,0.0,0.0,0.0,0.0,0.0,0.0,0.0,0.0,0.0,0.0,0.0,0.0,2.4818554089438414,0.029907226562500003,9.699396522721324
1707029427.984414,0.0,0.0,0.0,0.0,0.010386328251309028,0.008788431597261486,0.008255799379245636,0.11484375,0.1184326171875,10.0404541015625,0.0,0.0,0.0,0.0,0.0,0.0,0.0,0.0,0.0,0.0,0.0,0.0,0.0,0.0,0.0,0.0,0.0,0.0,0.0,0.0,0.0,0.0,0.0,0.0,0.0,0.0,0.0,2.6523068666553975,0.1184326171875,9.684481190935832
1707029428.011271,0.0,0.0,0.0,0.0,0.0037284255261109327,0.03036003642690331,-0.006657902725198095,-0.0514404296875,0.2380615234375,10.056005859375,0.0,0.0,0.0,0.0,0.0,0.0,0.0,0.0,0.0,0.0,0.0,0.0,0.0,0.0,0.0,0.0,0.0,0.0,0.0,0.0,0.0,0.0,0.0,0.0,0.0,0.0,0.0,2.4953728140140736,0.2380615234375,9.741612519530339
1707029428.0129695,0.0,0.0,0.0,0.0,0.00346210941710301,0.035153726389045944,-0.002929477199087161,-0.035888671875,0.17705078125,9.596630859375,0.0,0.0,0.0,0.0,0.0,0.0,0.0,0.0,0.0,0.0,0.0,0.0,0.0,0.0,0.0,0.0,0.0,0.0,0.0,0.0,0.0,0.0,0.0,0.0,0.0,0.0,0.0,2.394152086634926,0.17705078125,9.293258181818643
1707029428.015232,0.0,0.0,0.0,0.0,-0.0002663161090079238,0.06578007892495719,-0.00772316716122979,-0.9606201171875,0.248828125,10.199560546875,0.0,0.0,0.0,0.0,0.0,0.0,0.0,0.0,0.0,0.0,0.0,0.0,0.0,0.0,0.0,0.0,0.0,0.0,0.0,0.0,0.0,0.0,0.0,0.0,0.0,0.0,0.0,1.652128206076295,0.248828125,10.110603283167702
1707029428.0269134,0.0,0.0,0.0,0.0,-0.003994741635118856,0.028495823663847848,-0.0021305288720633903,-0.768017578125,0.11484375,9.933984375,0.0,0.0,0.0,0.0,0.0,0.0,0.0,0.0,0.0,0.0,0.0,0.0,0.0,0.0,0.0,0.0,0.0,0.0,0.0,0.0,0.0,0.0,0.0,0.0,0.0,0.0,0.0,1.7712434535345838,0.11484375,9.80492698551927
1707029428.0279803,0.0,0.0,0.0,0.0,-0.009054747706269408,0.01944107595757844,-0.006125270507182248,-0.854150390625,0.040673828125000006,10.199560546875,0.0,0.0,0.0,0.0,0.0,0.0,0.0,0.0,0.0,0.0,0.0,0.0,0.0,0.0,0.0,0.0,0.0,0.0,0.0,0.0,0.0,0.0,0.0,0.0,0.0,0.0,0.0,1.7551313929623733,0.040673828125000006,10.083656183776393
1707029428.0290484,0.0,0.0,0.0,0.0,-0.01251685712337242,-0.010652644360316953,-0.017576863194522972,-0.19140625,-0.1818359375,10.003369140625,0.0,0.0,0.0,0.0,0.0,0.0,0.0,0.0,0.0,0.0,0.0,0.0,0.0,0.0,0.0,0.0,0.0,0.0,0.0,0.0,0.0,0.0,0.0,0.0,0.0,0.0,0.0,2.3466419686333,-0.1818359375,9.726114434202204
1707029428.0672312,0.0,0.0,0.0,0.0,-0.009853696033293181,0.003994741635118856,-0.026098978682776528,0.153125,-0.2572021484375,9.83828125,0.0,0.0,0.0,0.0,0.0,0.0,0.0,0.0,0.0,0.0,0.0,0.0,0.0,0.0,0.0,0.0,0.0,0.0,0.0,0.0,0.0,0.0,0.0,0.0,0.0,0.0,0.0,2.6381725091635215,-0.2572021484375,9.479202025045167
1707029428.0683196,0.0,0.0,0.0,0.0,-0.00692421883420602,0.019973708175594285,-0.023435817592697288,0.2811279296875,-0.26557617187500004,9.878955078125,0.0,0.0,0.0,0.0,0.0,0.0,0.0,0.0,0.0,0.0,0.0,0.0,0.0,0.0,0.0,0.0,0.0,0.0,0.0,0.0,0.0,0.0,0.0,0.0,0.0,0.0,0.0,2.7723021987827905,-0.26557617187500004,9.486154482564903
1707029428.0693967,0.0,0.0,0.0,0.0,-0.0037284255261109327,0.04873584794845007,-0.01384843766841204,-0.0729736328125,-0.2572021484375,9.922021484375,0.0,0.0,0.0,0.0,0.0,0.0,0.0,0.0,0.0,0.0,0.0,0.0,0.0,0.0,0.0,0.0,0.0,0.0,0.0,0.0,0.0,0.0,0.0,0.0,0.0,0.0,0.0,2.440629752263779,-0.2572021484375,9.617440506696664
1707029428.0911677,0.0,0.0,0.0,0.0,-0.0007989483270237714,0.046871635185394576,-0.00346210941710301,-0.2643798828125,-0.389990234375,9.8753662109375,0.0,0.0,0.0,0.0,0.0,0.0,0.0,0.0,0.0,0.0,0.0,0.0,0.0,0.0,0.0,0.0,0.0,0.0,0.0,0.0,0.0,0.0,0.0,0.0,0.0,0.0,0.0,2.243647204195986,-0.389990234375,9.620748502360176
1707029428.0922773,0.0,0.0,0.0,0.0,0.0015978966540475428,0.04633900296737874,-0.005858954398174322,-0.43664550781250006,-0.5179931640625001,10.0476318359375,0.0,0.0,0.0,0.0,0.0,0.0,0.0,0.0,0.0,0.0,0.0,0.0,0.0,0.0,0.0,0.0,0.0,0.0,0.0,0.0,0.0,0.0,0.0,0.0,0.0,0.0,0.0,2.1205901637550126,-0.5179931640625001,9.831005145325838
1707029428.0933528,0.0,0.0,0.0,0.0,0.007456851052221865,0.031158984753927088,-0.018109495412538815,-0.25002441406250003,-0.26557617187500004,9.9902099609375,0.0,0.0,0.0,0.0,0.0,0.0,0.0,0.0,0.0,0.0,0.0,0.0,0.0,0.0,0.0,0.0,0.0,0.0,0.0,0.0,0.0,0.0,0.0,0.0,0.0,0.0,0.0,2.2866018085128252,-0.26557617187500004,9.728219746723859
1707029428.1485474,0.0,0.0,0.0,0.0,0.011984224905356573,0.02423476591972107,-0.01890844373956259,0.1495361328125,0.11962890625,9.8753662109375,0.0,0.0,0.0,0.0,0.0,0.0,0.0,0.0,0.0,0.0,0.0,0.0,0.0,0.0,0.0,0.0,0.0,0.0,0.0,0.0,0.0,0.0,0.0,0.0,0.0,0.0,0.0,2.6440865599553462,0.11962890625,9.515987868771488
1707029428.1495843,0.0,0.0,0.0,0.0,0.007989483270237713,0.04607268685837081,-0.01597896654047543,0.0825439453125,0.5120117187500001,10.10625,0.0,0.0,0.0,0.0,0.0,0.0,0.0,0.0,0.0,0.0,0.0,0.0,0.0,0.0,0.0,0.0,0.0,0.0,0.0,0.0,0.0,0.0,0.0,0.0,0.0,0.0,0.0,2.6377114107070594,0.5120117187500001,9.75630980848976
1707029428.1506577,0.0,0.0,0.0,0.0,0.0010652644360316951,0.04287689355027573,0.0002663161090079238,0.389990234375,0.28352050781250004,9.9052734375,0.0,0.0,0.0,0.0,0.0,0.0,0.0,0.0,0.0,0.0,0.0,0.0,0.0,0.0,0.0,0.0,0.0,0.0,0.0,0.0,0.0,0.0,0.0,0.0,0.0,0.0,0.0,2.884281144774273,0.28352050781250004,9.484063292305178
1707029428.1517265,0.0,0.0,0.0,0.0,-0.009587379924285256,0.07243798165015526,0.0002663161090079238,-0.05383300781250001,-0.1662841796875,10.2653564453125,0.0,0.0,0.0,0.0,0.0,0.0,0.0,0.0,0.0,0.0,0.0,0.0,0.0,0.0,0.0,0.0,0.0,0.0,0.0,0.0,0.0,0.0,0.0,0.0,0.0,0.0,0.0,2.546044005246738,-0.1662841796875,9.944752428562321
1707029428.1527936,0.0,0.0,0.0,0.0,-0.006657902725198095,0.04740426740341044,-0.0002663161090079238,0.5909667968750001,-0.6663330078125,9.68515625,0.0,0.0,0.0,0.0,0.0,0.0,0.0,0.0,0.0,0.0,0.0,0.0,0.0,0.0,0.0,0.0,0.0,0.0,0.0,0.0,0.0,0.0,0.0,0.0,0.0,0.0,0.0,3.0230032695929254,-0.6663330078125,9.220246448655983
1707029428.1538484,0.0,0.0,0.0,0.0,0.0021305288720633903,0.08495483877352769,-0.011717908796348644,0.1280029296875,-0.43544921875,10.051220703125,0.0,0.0,0.0,0.0,0.0,0.0,0.0,0.0,0.0,0.0,0.0,0.0,0.0,0.0,0.0,0.0,0.0,0.0,0.0,0.0,0.0,0.0,0.0,0.0,0.0,0.0,0.0,2.667762585197742,-0.43544921875,9.691566703168084
1707029428.1878314,0.0,0.0,0.0,0.0,0.009321063815277331,0.061519021180830406,-0.006391586616190171,0.648388671875,-0.095703125,9.69951171875,0.0,0.0,0.0,0.0,0.0,0.0,0.0,0.0,0.0,0.0,0.0,0.0,0.0,0.0,0.0,0.0,0.0,0.0,0.0,0.0,0.0,0.0,0.0,0.0,0.0,0.0,0.0,3.08218886693256,-0.095703125,9.219601251710476
1707029428.1888945,0.0,0.0,0.0,0.0,0.013049489341388264,0.08575378710055145,0.006125270507182248,0.6471923828125,0.361279296875,9.788037109375,0.0,0.0,0.0,0.0,0.0,0.0,0.0,0.0,0.0,0.0,0.0,0.0,0.0,0.0,0.0,0.0,0.0,0.0,0.0,0.0,0.0,0.0,0.0,0.0,0.0,0.0,0.0,3.103436981180548,0.361279296875,9.305547127316782
1707029428.1899612,0.0,0.0,0.0,0.0,0.005060006071150552,0.10040117309598728,0.005326322180158476,0.7285400390625002,0.6507812500000001,9.83828125,0.0,0.0,0.0,0.0,0.0,0.0,0.0,0.0,0.0,0.0,0.0,0.0,0.0,0.0,0.0,0.0,0.0,0.0,0.0,0.0,0.0,0.0,0.0,0.0,0.0,0.0,0.0,3.1948526540197424,0.6507812500000001,9.33356657777303
1707029428.2092056,0.0,0.0,0.0,0.0,-0.0021305288720633903,0.12277172625265285,0.014647385995435807,0.5179931640625001,0.5562744140625,9.9854248046875,0.0,0.0,0.0,0.0,0.0,0.0,0.0,0.0,0.0,0.0,0.0,0.0,0.0,0.0,0.0,0.0,0.0,0.0,0.0,0.0,0.0,0.0,0.0,0.0,0.0,0.0,0.0,3.028402455516163,0.5562744140625,9.529207942715258
1707029428.2102835,0.0,0.0,0.0,0.0,-0.014647385995435807,0.13156015784991437,0.006657902725198095,0.2069580078125,0.437841796875,10.4950439453125,0.0,0.0,0.0,0.0,0.0,0.0,0.0,0.0,0.0,0.0,0.0,0.0,0.0,0.0,0.0,0.0,0.0,0.0,0.0,0.0,0.0,0.0,0.0,0.0,0.0,0.0,0.0,2.856477014508497,0.437841796875,10.100956296144583
1707029428.211366,0.0,0.0,0.0,0.0,-0.019174759848570515,0.1051948630581299,0.0111852765783328,0.992919921875,0.14833984375,9.760522460937501,0.0,0.0,0.0,0.0,0.0,0.0,0.0,0.0,0.0,0.0,0.0,0.0,0.0,0.0,0.0,0.0,0.0,0.0,0.0,0.0,0.0,0.0,0.0,0.0,0.0,0.0,0.0,3.4309441466196096,0.14833984375,9.191425947289046
1707029428.248629,0.0,0.0,0.0,0.0,-0.02050634039361013,0.13076120952289058,0.02157160482964183,1.1400634765625,0.00478515625,9.8514404296875,0.0,0.0,0.0,0.0,0.0,0.0,0.0,0.0,0.0,0.0,0.0,0.0,0.0,0.0,0.0,0.0,0.0,0.0,0.0,0.0,0.0,0.0,0.0,0.0,0.0,0.0,0.0,3.596307871796319,0.00478515625,9.242142227943098
1707029428.2501364,0.0,0.0,0.0,0.0,-0.01970739206658636,0.146740176063366,0.0268979270098003,1.5515869140625,-0.0825439453125,9.60380859375,0.0,0.0,0.0,0.0,0.0,0.0,0.0,0.0,0.0,0.0,0.0,0.0,0.0,0.0,0.0,0.0,0.0,0.0,0.0,0.0,0.0,0.0,0.0,0.0,0.0,0.0,0.0,3.9317578348840687,-0.0825439453125,8.8984179372012
1707029428.2512324,0.0,0.0,0.0,0.0,-0.0167779148674992,0.1802960057983644,0.034088461953014244,1.6520751953125,-0.029907226562500003,9.7222412109375,0.0,0.0,0.0,0.0,0.0,0.0,0.0,0.0,0.0,0.0,0.0,0.0,0.0,0.0,0.0,0.0,0.0,0.0,0.0,0.0,0.0,0.0,0.0,0.0,0.0,0.0,0.0,4.058949189245533,-0.029907226562500003,8.987561298469199
1707029428.2899587,0.0,0.0,0.0,0.0,-0.01970739206658636,0.20319919117304583,0.03728425526110933,1.70830078125,-0.33017578125,9.904077148437501,0.0,0.0,0.0,0.0,0.0,0.0,0.0,0.0,0.0,0.0,0.0,0.0,0.0,0.0,0.0,0.0,0.0,0.0,0.0,0.0,0.0,0.0,0.0,0.0,0.0,0.0,0.0,4.159366143078396,-0.33017578125,9.149246362910686
1707029428.2910318,0.0,0.0,0.0,0.0,-0.017576863194522972,0.22876553763780652,0.038083203588133115,1.8482666015625,-0.68427734375,9.7330078125,0.0,0.0,0.0,0.0,0.0,0.0,0.0,0.0,0.0,0.0,0.0,0.0,0.0,0.0,0.0,0.0,0.0,0.0,0.0,0.0,0.0,0.0,0.0,0.0,0.0,0.0,0.0,4.251477802097652,-0.68427734375,8.948322021860207
1707029428.2921064,0.0,0.0,0.0,0.0,-0.009054747706269408,0.2545982002115752,0.04554005464035497,1.796826171875,-0.720166015625,10.003369140625,0.0,0.0,0.0,0.0,0.0,0.0,0.0,0.0,0.0,0.0,0.0,0.0,0.0,0.0,0.0,0.0,0.0,0.0,0.0,0.0,0.0,0.0,0.0,0.0,0.0,0.0,0.0,4.270139683292425,-0.720166015625,9.22290006129931
1707029428.30844,0.0,0.0,0.0,0.0,-0.0023968449810713144,0.2716424311880823,0.049801112384481754,2.098291015625,-0.6998291015625,9.716259765625,0.0,0.0,0.0,0.0,0.0,0.0,0.0,0.0,0.0,0.0,0.0,0.0,0.0,0.0,0.0,0.0,0.0,0.0,0.0,0.0,0.0,0.0,0.0,0.0,0.0,0.0,0.0,4.4891228208359895,-0.6998291015625,8.868839006251344
1707029428.3100748,0.0,0.0,0.0,0.0,0.010386328251309028,0.2985403581978826,0.057524279545711536,2.2071533203125,-0.4988525390625,9.7007080078125,0.0,0.0,0.0,0.0,0.0,0.0,0.0,0.0,0.0,0.0,0.0,0.0,0.0,0.0,0.0,0.0,0.0,0.0,0.0,0.0,0.0,0.0,0.0,0.0,0.0,0.0,0.0,4.590504592909541,-0.4988525390625,8.826240944744283
1707029428.31184,0.0,0.0,0.0,0.0,0.014913702104443732,0.3302319751698255,0.03941478413317272,2.4392333984375,0.002392578125,9.5619384765625,0.0,0.0,0.0,0.0,0.0,0.0,0.0,0.0,0.0,0.0,0.0,0.0,0.0,0.0,0.0,0.0,0.0,0.0,0.0,0.0,0.0,0.0,0.0,0.0,0.0,0.0,0.0,4.779906331409622,0.002392578125,8.633250978893729
1707029428.3471847,0.0,0.0,0.0,0.0,0.016245282649483352,0.3661846498858953,0.03275688140797463,2.433251953125,0.8170654296875,9.7677001953125,0.0,0.0,0.0,0.0,0.0,0.0,0.0,0.0,0.0,0.0,0.0,0.0,0.0,0.0,0.0,0.0,0.0,0.0,0.0,0.0,0.0,0.0,0.0,0.0,0.0,0.0,0.0,4.826197175913835,0.8170654296875,8.833827199583192
1707029428.3507419,0.0,0.0,0.0,0.0,-0.0042610577441267805,0.398408899075854,0.031691616971942935,2.548095703125,0.5921630859375,9.6002197265625,0.0,0.0,0.0,0.0,0.0,0.0,0.0,0.0,0.0,0.0,0.0,0.0,0.0,0.0,0.0,0.0,0.0,0.0,0.0,0.0,0.0,0.0,0.0,0.0,0.0,0.0,0.0,4.894913041377656,0.5921630859375,8.642733180418958
1707029428.3518748,0.0,0.0,0.0,0.0,-0.011451592687340723,0.4346278899009317,0.056192699000671927,2.6234619140625,0.356494140625,9.6026123046875,0.0,0.0,0.0,0.0,0.0,0.0,0.0,0.0,0.0,0.0,0.0,0.0,0.0,0.0,0.0,0.0,0.0,0.0,0.0,0.0,0.0,0.0,0.0,0.0,0.0,0.0,0.0,4.968430962418168,0.356494140625,8.625972945723674
1707029428.3709059,0.0,0.0,0.0,0.0,-0.02024002428460221,0.46924898407196175,0.07004113666908397,2.64140625,-0.1471435546875,9.614575195312499,0.0,0.0,0.0,0.0,0.0,0.0,0.0,0.0,0.0,0.0,0.0,0.0,0.0,0.0,0.0,0.0,0.0,0.0,0.0,0.0,0.0,0.0,0.0,0.0,0.0,0.0,0.0,4.9888188140721486,-0.1471435546875,8.633004691543798
1707029428.3719797,0.0,0.0,0.0,0.0,-0.0167779148674992,0.49881007217184126,0.07803061993932169,2.9464599609375,-0.6759033203125,9.454272460937501,0.0,0.0,0.0,0.0,0.0,0.0,0.0,0.0,0.0,0.0,0.0,0.0,0.0,0.0,0.0,0.0,0.0,0.0,0.0,0.0,0.0,0.0,0.0,0.0,0.0,0.0,0.0,5.243368267302648,-0.6759033203125,8.400713260223366
1707029428.373063,0.0,0.0,0.0,0.0,-0.00692421883420602,0.5363606435419586,0.062317969507854176,3.2263916015625,-0.5586669921875,9.4375244140625,0.0,0.0,0.0,0.0,0.0,0.0,0.0,0.0,0.0,0.0,0.0,0.0,0.0,0.0,0.0,0.0,0.0,0.0,0.0,0.0,0.0,0.0,0.0,0.0,0.0,0.0,0.0,5.509946765503365,-0.5586669921875,8.31366083467312
1707029428.4075558,0.0,0.0,0.0,0.0,-0.004527373853134705,0.5789712209832264,0.04793689962142629,3.5565673828125,-0.437841796875,9.2652587890625,0.0,0.0,0.0,0.0,0.0,0.0,0.0,0.0,0.0,0.0,0.0,0.0,0.0,0.0,0.0,0.0,0.0,0.0,0.0,0.0,0.0,0.0,0.0,0.0,0.0,0.0,0.0,5.785772577505714,-0.437841796875,8.063437707216977
1707029428.408588,0.0,0.0,0.0,0.0,0.0018642127630554663,0.6293049655857239,0.052464273474560986,3.864013671875,-0.2966796875,9.041552734375,0.0,0.0,0.0,0.0,0.0,0.0,0.0,0.0,0.0,0.0,0.0,0.0,0.0,0.0,0.0,0.0,0.0,0.0,0.0,0.0,0.0,0.0,0.0,0.0,0.0,0.0,0.0,6.026589560017478,-0.2966796875,7.769201746640982
1707029428.4096153,0.0,0.0,0.0,0.0,0.0015978966540475428,0.6977482056007603,0.06578007892495719,3.6020263671875004,0.2069580078125,9.50810546875,0.0,0.0,0.0,0.0,0.0,0.0,0.0,0.0,0.0,0.0,0.0,0.0,0.0,0.0,0.0,0.0,0.0,0.0,0.0,0.0,0.0,0.0,0.0,0.0,0.0,0.0,0.0,5.891215075012533,0.2069580078125,8.286872057340616
1707029428.4356823,0.0,0.0,0.0,0.0,-0.002929477199087161,0.7142598043592516,0.09427590258880504,4.4872802734375,-0.361279296875,8.740087890625,0.0,0.0,0.0,0.0,0.0,0.0,0.0,0.0,0.0,0.0,0.0,0.0,0.0,0.0,0.0,0.0,0.0,0.0,0.0,0.0,0.0,0.0,0.0,0.0,0.0,0.0,0.0,6.553263619804406,-0.361279296875,7.319805770481833
1707029428.4421265,0.0,0.0,0.0,0.0,-0.0023968449810713144,0.7992146431327793,0.08974852873567032,4.9634033203125005,-0.3983642578125,9.2640625,0.0,0.0,0.0,0.0,0.0,0.0,0.0,0.0,0.0,0.0,0.0,0.0,0.0,0.0,0.0,0.0,0.0,0.0,0.0,0.0,0.0,0.0,0.0,0.0,0.0,0.0,0.0,7.146500675018487,-0.3983642578125,7.706215324395998
1707029428.443221,0.0,0.0,0.0,0.0,0.00772316716122979,0.8708536764559107,0.07084008499610774,5.6213623046875005,-0.01435546875,8.604907226562501,0.0,0.0,0.0,0.0,0.0,0.0,0.0,0.0,0.0,0.0,0.0,0.0,0.0,0.0,0.0,0.0,0.0,0.0,0.0,0.0,0.0,0.0,0.0,0.0,0.0,0.0,0.0,7.61620742808288,-0.01435546875,6.901994418334766
1707029428.4673774,0.0,0.0,0.0,0.0,0.0042610577441267805,0.9829727583482467,0.04713795129440252,5.7589355468750005,-0.5191894531250001,8.25439453125,0.0,0.0,0.0,0.0,0.0,0.0,0.0,0.0,0.0,0.0,0.0,0.0,0.0,0.0,0.0,0.0,0.0,0.0,0.0,0.0,0.0,0.0,0.0,0.0,0.0,0.0,0.0,7.660587949096871,-0.5191894531250001,6.528074753305309
1707029428.4684503,0.0,0.0,0.0,0.0,0.019174759848570515,1.111337122890066,0.04580637074936289,5.0399658203125,-0.05981445312500001,8.0294921875,0.0,0.0,0.0,0.0,0.0,0.0,0.0,0.0,0.0,0.0,0.0,0.0,0.0,0.0,0.0,0.0,0.0,0.0,0.0,0.0,0.0,0.0,0.0,0.0,0.0,0.0,0.0,6.908105140062046,-0.05981445312500001,6.492463602738959
1707029428.4695044,0.0,0.0,0.0,0.0,0.012250541014364496,1.2082761865689504,0.01970739206658636,4.3473144531250005,-0.2930908203125,7.792626953125,0.0,0.0,0.0,0.0,0.0,0.0,0.0,0.0,0.0,0.0,0.0,0.0,0.0,0.0,0.0,0.0,0.0,0.0,0.0,0.0,0.0,0.0,0.0,0.0,0.0,0.0,0.0,6.178056028977566,-0.2930908203125,6.43861797963924
1707029428.4881723,0.0,0.0,0.0,0.0,0.030892668644919165,1.2737899493848996,0.04633900296737874,3.4058349609375,-0.79912109375,7.713671875,0.0,0.0,0.0,0.0,0.0,0.0,0.0,0.0,0.0,0.0,0.0,0.0,0.0,0.0,0.0,0.0,0.0,0.0,0.0,0.0,0.0,0.0,0.0,0.0,0.0,0.0,0.0,5.247246853256553,-0.79912109375,6.600518618813173
1707029428.48924,0.0,0.0,0.0,0.0,0.02636529479178445,1.3299826483855715,-0.011717908796348644,3.2491210937500004,0.153125,7.591650390625,0.0,0.0,0.0,0.0,0.0,0.0,0.0,0.0,0.0,0.0,0.0,0.0,0.0,0.0,0.0,0.0,0.0,0.0,0.0,0.0,0.0,0.0,0.0,0.0,0.0,0.0,0.0,5.064752228312846,0.153125,6.522133730699483
1707029428.490304,0.0,0.0,0.0,0.0,0.026098978682776528,1.360342684812475,-0.013315805450396187,3.8125732421875,0.3696533203125,6.9301025390625,0.0,0.0,0.0,0.0,0.0,0.0,0.0,0.0,0.0,0.0,0.0,0.0,0.0,0.0,0.0,0.0,0.0,0.0,0.0,0.0,0.0,0.0,0.0,0.0,0.0,0.0,0.0,5.4424236334808045,0.3696533203125,5.739517481696018
1707029428.5292857,0.0,0.0,0.0,0.0,0.0167779148674992,1.4434333108229471,-0.02956108809987954,4.031494140625,0.882861328125,6.7219482421875005,0.0,0.0,0.0,0.0,0.0,0.0,0.0,0.0,0.0,0.0,0.0,0.0,0.0,0.0,0.0,0.0,0.0,0.0,0.0,0.0,0.0,0.0,0.0,0.0,0.0,0.0,0.0,5.601533609953439,0.882861328125,5.482732383866947
1707029428.5303555,0.0,0.0,0.0,0.0,0.008255799379245636,1.515604976364094,-0.03302319751698255,4.6356201171875,1.8267333984375,6.2015625000000005,0.0,0.0,0.0,0.0,0.0,0.0,0.0,0.0,0.0,0.0,0.0,0.0,0.0,0.0,0.0,0.0,0.0,0.0,0.0,0.0,0.0,0.0,0.0,0.0,0.0,0.0,0.0,6.054282162113545,1.8267333984375,4.826387760405646
1707029428.5314271,0.0,0.0,0.0,0.0,-0.007456851052221865,1.7097494198308707,-0.010386328251309028,7.8225341796875005,2.4787109375,23.61953125,0.0,0.0,0.0,0.0,0.0,0.0,0.0,0.0,0.0,0.0,0.0,0.0,0.0,0.0,0.0,0.0,0.0,0.0,0.0,0.0,0.0,0.0,0.0,0.0,0.0,0.0,0.0,13.545858083484216,2.4787109375,20.87064987594328
1707029428.547059,0.0,0.0,0.0,0.0,0.08309062601047222,2.5153556495798406,-0.02530003035575276,5.4000488281250005,3.426171875,-7.369140625,0.0,0.0,0.0,0.0,0.0,0.0,0.0,0.0,0.0,0.0,0.0,0.0,0.0,0.0,0.0,0.0,0.0,0.0,0.0,0.0,0.0,0.0,0.0,0.0,0.0,0.0,0.0,3.359126442171755,3.426171875,-8.495941998546254
1707029428.548129,0.0,0.0,0.0,0.0,0.034354778062022175,4.11618178082647,0.13395700283098566,-39.2,4.53154296875,35.76904296875,0.0,0.0,0.0,0.0,0.0,0.0,0.0,0.0,0.0,0.0,0.0,0.0,0.0,0.0,0.0,0.0,0.0,0.0,0.0,0.0,0.0,0.0,0.0,0.0,0.0,0.0,0.0,-28.870675911043104,4.53154296875,44.52581843537297
1707029428.5492268,0.0,0.0,0.0,0.0,-0.038083203588133115,0.9909622416184845,0.4029362729289887,-39.2,-1.1663818359375,34.1289306640625,0.0,0.0,0.0,0.0,0.0,0.0,0.0,0.0,0.0,0.0,0.0,0.0,0.0,0.0,0.0,0.0,0.0,0.0,0.0,0.0,0.0,0.0,0.0,0.0,0.0,0.0,0.0,-29.285782352228345,-1.1663818359375,42.939106421655964
1707029428.5865371,0.0,0.0,0.0,0.0,-0.3893541513695846,-1.5566176571513148,-0.28682244940153395,7.515087890625,-5.1392578125,-17.9551025390625,0.0,0.0,0.0,0.0,0.0,0.0,0.0,0.0,0.0,0.0,0.0,0.0,0.0,0.0,0.0,0.0,0.0,0.0,0.0,0.0,0.0,0.0,0.0,0.0,0.0,0.0,0.0,2.726033766900766,-5.1392578125,-19.272545060105166
1707029428.587613,0.0,0.0,0.0,0.0,0.06418218227090965,0.07669903939428206,0.18002968968935648,8.8609130859375,1.5539794921875,-9.8394775390625,0.0,0.0,0.0,0.0,0.0,0.0,0.0,0.0,0.0,0.0,0.0,0.0,0.0,0.0,0.0,0.0,0.0,0.0,0.0,0.0,0.0,0.0,0.0,0.0,0.0,0.0,0.0,6.082075424400617,1.5539794921875,-11.761779520555379
1707029428.5886877,0.0,0.0,0.0,0.0,-0.04127899689622819,1.4354438275527093,-0.18908443739562592,-4.447802734375,1.820751953125,3.5769042968750004,0.0,0.0,0.0,0.0,0.0,0.0,0.0,0.0,0.0,0.0,0.0,0.0,0.0,0.0,0.0,0.0,0.0,0.0,0.0,0.0,0.0,0.0,0.0,0.0,0.0,0.0,0.0,-3.39768563665642,1.820751953125,4.586166790182759
1707029428.617571,0.0,0.0,0.0,0.0,0.004793689962142629,1.3528858337602527,0.03941478413317272,-23.7929931640625,-2.2298828125,24.874438476562503,0.0,0.0,0.0,0.0,0.0,0.0,0.0,0.0,0.0,0.0,0.0,0.0,0.0,0.0,0.0,0.0,0.0,0.0,0.0,0.0,0.0,0.0,0.0,0.0,0.0,0.0,0.0,-16.72268928464828,-2.2298828125,30.086473311415673
1707029428.618634,0.0,0.0,0.0,0.0,-0.059921124526782846,-0.6024070385759236,-0.25406556799355934,5.83310546875,1.997802734375,7.7998046875,0.0,0.0,0.0,0.0,0.0,0.0,0.0,0.0,0.0,0.0,0.0,0.0,0.0,0.0,0.0,0.0,0.0,0.0,0.0,0.0,0.0,0.0,0.0,0.0,0.0,0.0,0.0,7.617287947054612,1.997802734375,6.069513728822489
1707029428.6197064,0.0,0.0,0.0,0.0,-0.1475391243903898,-0.2000033978649508,-0.15899071707773052,20.040234375,-0.7620361328125,-1.1496337890625,0.0,0.0,0.0,0.0,0.0,0.0,0.0,0.0,0.0,0.0,0.0,0.0,0.0,0.0,0.0,0.0,0.0,0.0,0.0,0.0,0.0,0.0,0.0,0.0,0.0,0.0,0.0,19.096777800006,-0.7620361328125,-6.184313164053375
1707029428.646819,0.0,0.0,0.0,0.0,-0.03488741028003802,1.2974920830866048,0.1944107595757844,3.8723876953125,-2.318408203125,1.873388671875,0.0,0.0,0.0,0.0,0.0,0.0,0.0,0.0,0.0,0.0,0.0,0.0,0.0,0.0,0.0,0.0,0.0,0.0,0.0,0.0,0.0,0.0,0.0,0.0,0.0,0.0,0.0,4.2204547595171595,-2.318408203125,0.8323059543137901
1707029428.6587164,0.0,0.0,0.0,0.0,0.057524279545711536,1.9313244225254635,0.1981391851018953,-14.74306640625,-0.029907226562500003,12.14951171875,0.0,0.0,0.0,0.0,0.0,0.0,0.0,0.0,0.0,0.0,0.0,0.0,0.0,0.0,0.0,0.0,0.0,0.0,0.0,0.0,0.0,0.0,0.0,0.0,0.0,0.0,0.0,-11.188050941189681,-0.029907226562500003,15.485353021500206
1707029428.6600008,0.0,0.0,0.0,0.0,0.06524744670694134,1.2737899493848996,0.27244137951510605,-21.091772460937506,2.241845703125,14.893798828125,0.0,0.0,0.0,0.0,0.0,0.0,0.0,0.0,0.0,0.0,0.0,0.0,0.0,0.0,0.0,0.0,0.0,0.0,0.0,0.0,0.0,0.0,0.0,0.0,0.0,0.0,0.0,-16.635480905243078,2.241845703125,19.74712343932433
1707029428.6671164,0.0,0.0,0.0,0.0,-0.11211908189233592,0.42717103884870977,0.13928332501114415,-11.197265625,-2.7083984375,7.2052490234375,0.0,0.0,0.0,0.0,0.0,0.0,0.0,0.0,0.0,0.0,0.0,0.0,0.0,0.0,0.0,0.0,0.0,0.0,0.0,0.0,0.0,0.0,0.0,0.0,0.0,0.0,0.0,-9.00907246763855,-2.7083984375,9.804640954129361
1707029428.6681983,0.0,0.0,0.0,0.0,-0.031691616971942935,0.4926848016646591,0.09906959255094766,-8.371630859375001,-3.2957763671875004,3.28740234375,0.0,0.0,0.0,0.0,0.0,0.0,0.0,0.0,0.0,0.0,0.0,0.0,0.0,0.0,0.0,0.0,0.0,0.0,0.0,0.0,0.0,0.0,0.0,0.0,0.0,0.0,0.0,-7.26703003035343,-3.2957763671875004,5.299197293295867
1707029428.6692638,0.0,0.0,0.0,0.0,0.032490565298966705,0.964863262935708,-0.05486111845563231,-21.303515625,-0.0968994140625,13.018017578125,0.0,0.0,0.0,0.0,0.0,0.0,0.0,0.0,0.0,0.0,0.0,0.0,0.0,0.0,0.0,0.0,0.0,0.0,0.0,0.0,0.0,0.0,0.0,0.0,0.0,0.0,0.0,-17.31508333136004,-0.0968994140625,17.986007029828723
1707029428.7117877,0.0,0.0,0.0,0.0,0.027963191445832,0.3259709174256987,0.0007989483270237714,-21.139624023437506,-1.0658935546875,12.9378662109375,0.0,0.0,0.0,0.0,0.0,0.0,0.0,0.0,0.0,0.0,0.0,0.0,0.0,0.0,0.0,0.0,0.0,0.0,0.0,0.0,0.0,0.0,0.0,0.0,0.0,0.0,0.0,-17.17681388254909,-1.0658935546875,17.866984938390786
1707029428.7128687,0.0,0.0,0.0,0.0,-0.02423476591972107,-0.4237089294316068,-0.08069378102940093,-5.9922119140625005,-1.720263671875,4.289892578125,0.0,0.0,0.0,0.0,0.0,0.0,0.0,0.0,0.0,0.0,0.0,0.0,0.0,0.0,0.0,0.0,0.0,0.0,0.0,0.0,0.0,0.0,0.0,0.0,0.0,0.0,0.0,-4.711355783091321,-1.720263671875,5.6668252699387605
1707029428.7139308,0.0,0.0,0.0,0.0,0.02024002428460221,-0.21731394495046585,-0.10226538585904274,0.7093994140625001,0.299072265625,1.332666015625,0.0,0.0,0.0,0.0,0.0,0.0,0.0,0.0,0.0,0.0,0.0,0.0,0.0,0.0,0.0,0.0,0.0,0.0,0.0,0.0,0.0,0.0,0.0,0.0,0.0,0.0,0.0,1.023595039835551,0.299072265625,1.109729441034205
1707029428.7275417,0.0,0.0,0.0,0.0,0.052464273474560986,0.2801645466763359,-0.031691616971942935,-3.227587890625,1.52646484375,5.3043457031250005,0.0,0.0,0.0,0.0,0.0,0.0,0.0,0.0,0.0,0.0,0.0,0.0,0.0,0.0,0.0,0.0,0.0,0.0,0.0,0.0,0.0,0.0,0.0,0.0,0.0,0.0,0.0,-1.7799905563771858,1.52646484375,5.948532638321642
1707029428.7286098,0.0,0.0,0.0,0.0,0.03621899082507764,0.42823630328474144,0.054062170128608526,-10.089501953125,1.323095703125,12.424658203125,0.0,0.0,0.0,0.0,0.0,0.0,0.0,0.0,0.0,0.0,0.0,0.0,0.0,0.0,0.0,0.0,0.0,0.0,0.0,0.0,0.0,0.0,0.0,0.0,0.0,0.0,0.0,-6.616362965382425,1.323095703125,14.573740845675498
1707029428.729804,0.0,0.0,0.0,0.0,-0.018642127630554665,0.07297061386817112,0.03941478413317272,-5.82353515625,1.7812744140625,8.748461914062501,0.0,0.0,0.0,0.0,0.0,0.0,0.0,0.0,0.0,0.0,0.0,0.0,0.0,0.0,0.0,0.0,0.0,0.0,0.0,0.0,0.0,0.0,0.0,0.0,0.0,0.0,0.0,-3.4197233248626646,1.7812744140625,9.937536916121221
1707029428.7669575,0.0,0.0,0.0,0.0,-0.03861583580614896,0.09906959255094766,0.11717908796348649,-4.7169677734375,0.01435546875,5.203857421875,0.0,0.0,0.0,0.0,0.0,0.0,0.0,0.0,0.0,0.0,0.0,0.0,0.0,0.0,0.0,0.0,0.0,0.0,0.0,0.0,0.0,0.0,0.0,0.0,0.0,0.0,0.0,-3.2463110510068214,0.01435546875,6.228272762408727
1707029428.7681003,0.0,0.0,0.0,0.0,-0.014647385995435807,0.3443467289472455,0.1528654465705483,-11.0740478515625,-0.1818359375,8.000781250000001,0.0,0.0,0.0,0.0,0.0,0.0,0.0,0.0,0.0,0.0,0.0,0.0,0.0,0.0,0.0,0.0,0.0,0.0,0.0,0.0,0.0,0.0,0.0,0.0,0.0,0.0,0.0,-8.68852022781285,-0.1818359375,10.54308553887023
1707029428.7691655,0.0,0.0,0.0,0.0,-0.02716424311880823,0.21331920331534693,0.09800432811491597,-14.2035400390625,0.322998046875,9.499731445312499,0.0,0.0,0.0,0.0,0.0,0.0,0.0,0.0,0.0,0.0,0.0,0.0,0.0,0.0,0.0,0.0,0.0,0.0,0.0,0.0,0.0,0.0,0.0,0.0,0.0,0.0,0.0,-11.336740692494523,0.322998046875,12.785294585790718
1707029428.810646,0.0,0.0,0.0,0.0,-0.04713795129440252,-0.08335694211948017,0.057790595654719466,-11.5573486328125,-0.39477539062500006,8.6216552734375,0.0,0.0,0.0,0.0,0.0,0.0,0.0,0.0,0.0,0.0,0.0,0.0,0.0,0.0,0.0,0.0,0.0,0.0,0.0,0.0,0.0,0.0,0.0,0.0,0.0,0.0,0.0,-8.998944305541901,-0.39477539062500006,11.266066237161958
1707029428.8117085,0.0,0.0,0.0,0.0,-0.03568635860706179,-0.18508969576050704,0.04314320965928366,-10.57041015625,0.2296875,8.720947265625,0.0,0.0,0.0,0.0,0.0,0.0,0.0,0.0,0.0,0.0,0.0,0.0,0.0,0.0,0.0,0.0,0.0,0.0,0.0,0.0,0.0,0.0,0.0,0.0,0.0,0.0,0.0,-8.019009042277931,0.2296875,11.112334860911549
1707029428.8128219,0.0,0.0,0.0,0.0,-0.07590009106725827,-0.3246393368806591,-0.02316950148368937,-7.979248046875002,0.155517578125,7.8249267578124995,0.0,0.0,0.0,0.0,0.0,0.0,0.0,0.0,0.0,0.0,0.0,0.0,0.0,0.0,0.0,0.0,0.0,0.0,0.0,0.0,0.0,0.0,0.0,0.0,0.0,0.0,0.0,-5.73899190350092,0.155517578125,9.589674138897497
1707029428.8285882,0.0,0.0,0.0,0.0,-0.06098638896281455,-0.398408899075854,0.03195793308095086,-4.4896728515625,-1.6353271484375,4.97177734375,0.0,0.0,0.0,0.0,0.0,0.0,0.0,0.0,0.0,0.0,0.0,0.0,0.0,0.0,0.0,0.0,0.0,0.0,0.0,0.0,0.0,0.0,0.0,0.0,0.0,0.0,0.0,-3.085155228237824,-1.6353271484375,5.946221446226164
1707029428.8296635,0.0,0.0,0.0,0.0,-0.02769687533682408,-0.21278657109733112,0.02769687533682408,-4.1523193359375,-0.705810546875,4.80908203125,0.0,0.0,0.0,0.0,0.0,0.0,0.0,0.0,0.0,0.0,0.0,0.0,0.0,0.0,0.0,0.0,0.0,0.0,0.0,0.0,0.0,0.0,0.0,0.0,0.0,0.0,0.0,-2.7999631699832648,-0.705810546875,5.70344037381205
1707029428.8307328,0.0,0.0,0.0,0.0,-0.003994741635118856,-0.013315805450396187,0.07350324608618698,-8.0091552734375,0.6268554687500001,7.6550537109375005,0.0,0.0,0.0,0.0,0.0,0.0,0.0,0.0,0.0,0.0,0.0,0.0,0.0,0.0,0.0,0.0,0.0,0.0,0.0,0.0,0.0,0.0,0.0,0.0,0.0,0.0,0.0,-5.810919631430334,0.6268554687500001,9.43290138549255
1707029428.8666775,0.0,0.0,0.0,0.0,-0.019174759848570515,-0.06684534336098888,0.12783173232380343,-11.577685546875,0.4988525390625,9.22099609375,0.0,0.0,0.0,0.0,0.0,0.0,0.0,0.0,0.0,0.0,0.0,0.0,0.0,0.0,0.0,0.0,0.0,0.0,0.0,0.0,0.0,0.0,0.0,0.0,0.0,0.0,0.0,-8.86692809635108,0.4988525390625,11.85104036434822
1707029428.8677628,0.0,0.0,0.0,0.0,-0.04181162911424404,-0.3038666803780411,0.13395700283098566,-11.0549072265625,-0.0251220703125,8.725732421875001,0.0,0.0,0.0,0.0,0.0,0.0,0.0,0.0,0.0,0.0,0.0,0.0,0.0,0.0,0.0,0.0,0.0,0.0,0.0,0.0,0.0,0.0,0.0,0.0,0.0,0.0,0.0,-8.486520303977892,-0.0251220703125,11.239588658675876
1707029428.8688433,0.0,0.0,0.0,0.0,-0.04101268078722026,-0.42051313612351165,0.14061490555618375,-9.474609375,-0.4797119140625,7.602416992187501,0.0,0.0,0.0,0.0,0.0,0.0,0.0,0.0,0.0,0.0,0.0,0.0,0.0,0.0,0.0,0.0,0.0,0.0,0.0,0.0,0.0,0.0,0.0,0.0,0.0,0.0,0.0,-7.241982286583857,-0.4797119140625,9.752879548766343
1707029428.8870015,0.0,0.0,0.0,0.0,-0.043942157986307434,-0.4189152394694642,0.07962851659336921,-9.816748046875,-0.8015136718750001,8.681469726562499,0.0,0.0,0.0,0.0,0.0,0.0,0.0,0.0,0.0,0.0,0.0,0.0,0.0,0.0,0.0,0.0,0.0,0.0,0.0,0.0,0.0,0.0,0.0,0.0,0.0,0.0,0.0,-7.299876980948538,-0.8015136718750001,10.883393537498446
1707029428.8880696,0.0,0.0,0.0,0.0,-0.020772656502618055,-0.5086637682051345,0.04261057744126781,-10.0308837890625,-0.160302734375,10.2689453125,0.0,0.0,0.0,0.0,0.0,0.0,0.0,0.0,0.0,0.0,0.0,0.0,0.0,0.0,0.0,0.0,0.0,0.0,0.0,0.0,0.0,0.0,0.0,0.0,0.0,0.0,0.0,-7.105256414210777,-0.160302734375,12.473379602541934
1707029428.8891368,0.0,0.0,0.0,0.0,-0.032490565298966705,-0.7275756098096479,0.035952674716069714,-6.7518554687500005,0.4880859375,8.5977294921875,0.0,0.0,0.0,0.0,0.0,0.0,0.0,0.0,0.0,0.0,0.0,0.0,0.0,0.0,0.0,0.0,0.0,0.0,0.0,0.0,0.0,0.0,0.0,0.0,0.0,0.0,0.0,-4.35596835347954,0.4880859375,10.02666666421123
1707029428.9265857,0.0,0.0,0.0,0.0,-0.054594802346624394,-0.7595335428905987,0.06498113059793341,-3.6977294921875,-0.0155517578125,8.2436279296875,0.0,0.0,0.0,0.0,0.0,0.0,0.0,0.0,0.0,0.0,0.0,0.0,0.0,0.0,0.0,0.0,0.0,0.0,0.0,0.0,0.0,0.0,0.0,0.0,0.0,0.0,0.0,-1.4909032444870678,-0.0155517578125,8.91110612416298
1707029428.9276507,0.0,0.0,0.0,0.0,-0.02636529479178445,-0.6716492269179839,0.12357067457967665,-2.4727294921875,-1.093408203125,6.3630615234375005,0.0,0.0,0.0,0.0,0.0,0.0,0.0,0.0,0.0,0.0,0.0,0.0,0.0,0.0,0.0,0.0,0.0,0.0,0.0,0.0,0.0,0.0,0.0,0.0,0.0,0.0,0.0,-0.7817524228218493,-1.093408203125,6.781725904369535
1707029428.9288385,0.0,0.0,0.0,0.0,-0.005060006071150552,-0.4293015677207732,0.09241168982574957,-6.1884033203125,-0.95224609375,8.088110351562499,0.0,0.0,0.0,0.0,0.0,0.0,0.0,0.0,0.0,0.0,0.0,0.0,0.0,0.0,0.0,0.0,0.0,0.0,0.0,0.0,0.0,0.0,0.0,0.0,0.0,0.0,0.0,-3.939844345809375,-0.95224609375,9.391032490876661
1707029428.9488685,0.0,0.0,0.0,0.0,0.03036003642690331,-0.475107938470136,0.13395700283098566,-11.6052001953125,-0.399560546875,12.5263427734375,0.0,0.0,0.0,0.0,0.0,0.0,0.0,0.0,0.0,0.0,0.0,0.0,0.0,0.0,0.0,0.0,0.0,0.0,0.0,0.0,0.0,0.0,0.0,0.0,0.0,0.0,0.0,-8.056975710735234,-0.399560546875,15.055732371676697
1707029428.9501565,0.0,0.0,0.0,0.0,-0.04048004856920442,-0.8538094454794036,0.02050634039361013,-8.6982177734375,-0.35769042968750003,9.68994140625,0.0,0.0,0.0,0.0,0.0,0.0,0.0,0.0,0.0,0.0,0.0,0.0,0.0,0.0,0.0,0.0,0.0,0.0,0.0,0.0,0.0,0.0,0.0,0.0,0.0,0.0,0.0,-5.962524345832159,-0.35769042968750003,11.575934533162368
1707029428.9512498,0.0,0.0,0.0,0.0,0.006657902725198095,-1.048220205055188,0.04846953183944214,-4.1571044921875,-0.50244140625,5.9611083984375,0.0,0.0,0.0,0.0,0.0,0.0,0.0,0.0,0.0,0.0,0.0,0.0,0.0,0.0,0.0,0.0,0.0,0.0,0.0,0.0,0.0,0.0,0.0,0.0,0.0,0.0,0.0,-2.5130188557553153,-0.50244140625,6.8191691082936075
1707029428.9878905,0.0,0.0,0.0,0.0,-0.011717908796348644,-0.852744181043372,-0.08016114881138507,-3.2527099609375,-0.1902099609375,4.4729248046875005,0.0,0.0,0.0,0.0,0.0,0.0,0.0,0.0,0.0,0.0,0.0,0.0,0.0,0.0,0.0,0.0,0.0,0.0,0.0,0.0,0.0,0.0,0.0,0.0,0.0,0.0,0.0,-2.0147242754959303,-0.1902099609375,5.150540213618194
1707029428.9897823,0.0,0.0,0.0,0.0,0.035153726389045944,-0.6511428865243738,-0.01597896654047543,-7.196875,-0.2260986328125,7.592846679687501,0.0,0.0,0.0,0.0,0.0,0.0,0.0,0.0,0.0,0.0,0.0,0.0,0.0,0.0,0.0,0.0,0.0,0.0,0.0,0.0,0.0,0.0,0.0,0.0,0.0,0.0,0.0,-5.040830701910121,-0.2260986328125,9.167134574202935
1707029428.9908319,0.0,0.0,0.0,0.0,0.029827404208887465,-0.7203850748664339,-0.0447411063133312,-10.2868896484375,0.016748046875000002,11.950927734375,0.0,0.0,0.0,0.0,0.0,0.0,0.0,0.0,0.0,0.0,0.0,0.0,0.0,0.0,0.0,0.0,0.0,0.0,0.0,0.0,0.0,0.0,0.0,0.0,0.0,0.0,0.0,-6.927223383305592,0.016748046875000002,14.165392636604478
1707029429.007922,0.0,0.0,0.0,0.0,0.013049489341388264,-1.0266486002255464,-0.034088461953014244,-7.730419921875,-0.7596435546875,9.975854492187501,0.0,0.0,0.0,0.0,0.0,0.0,0.0,0.0,0.0,0.0,0.0,0.0,0.0,0.0,0.0,0.0,0.0,0.0,0.0,0.0,0.0,0.0,0.0,0.0,0.0,0.0,0.0,-4.953873391389905,-0.7596435546875,11.607592491119702
1707029429.0090022,0.0,0.0,0.0,0.0,0.01970739206658636,-1.1590077064024844,-0.03648530693408556,-3.7802734375,-1.282421875,6.226684570312501,0.0,0.0,0.0,0.0,0.0,0.0,0.0,0.0,0.0,0.0,0.0,0.0,0.0,0.0,0.0,0.0,0.0,0.0,0.0,0.0,0.0,0.0,0.0,0.0,0.0,0.0,0.0,-2.08124065424986,-1.282421875,6.980723840658177
1707029429.010061,0.0,0.0,0.0,0.0,0.05645901510967985,-1.030643341860665,-0.07882956826634543,-2.481103515625,-0.5873779296875,4.4310546875000005,0.0,0.0,0.0,0.0,0.0,0.0,0.0,0.0,0.0,0.0,0.0,0.0,0.0,0.0,0.0,0.0,0.0,0.0,0.0,0.0,0.0,0.0,0.0,0.0,0.0,0.0,0.0,-1.2788376792844178,-0.5873779296875,4.914742565883274
1707029429.0470176,0.0,0.0,0.0,0.0,0.08815063208162278,-0.8258462540335717,-0.07803061993932169,-5.132080078125,1.8375,9.558349609375,0.0,0.0,0.0,0.0,0.0,0.0,0.0,0.0,0.0,0.0,0.0,0.0,0.0,0.0,0.0,0.0,0.0,0.0,0.0,0.0,0.0,0.0,0.0,0.0,0.0,0.0,0.0,-2.5458016584798533,1.8375,10.546050782117822
1707029429.0481305,0.0,0.0,0.0,0.0,0.040213732460196494,-0.7651261811797652,-0.07323692997717905,-10.060791015625,2.17724609375,25.941528320312504,0.0,0.0,0.0,0.0,0.0,0.0,0.0,0.0,0.0,0.0,0.0,0.0,0.0,0.0,0.0,0.0,0.0,0.0,0.0,0.0,0.0,0.0,0.0,0.0,0.0,0.0,0.0,-3.16751630799276,2.17724609375,27.64324958994974
1707029429.0492003,0.0,0.0,0.0,0.0,-0.06098638896281455,-1.4977617970605634,-0.04154531300523612,-5.9204345703125005,-2.1927978515625,23.49990234375,0.0,0.0,0.0,0.0,0.0,0.0,0.0,0.0,0.0,0.0,0.0,0.0,0.0,0.0,0.0,0.0,0.0,0.0,0.0,0.0,0.0,0.0,0.0,0.0,0.0,0.0,0.0,0.22006796116513438,-2.1927978515625,24.233211214356356
1707029429.066674,0.0,0.0,0.0,0.0,-0.08921589651765446,-2.380333382312823,-0.18908443739562592,23.27978515625,-1.6209716796875002,4.135571289062501,0.0,0.0,0.0,0.0,0.0,0.0,0.0,0.0,0.0,0.0,0.0,0.0,0.0,0.0,0.0,0.0,0.0,0.0,0.0,0.0,0.0,0.0,0.0,0.0,0.0,0.0,0.0,23.568518420211714,-1.6209716796875002,-1.891107158311513
1707029429.0677536,0.0,0.0,0.0,0.0,0.0167779148674992,-1.5004249581506428,-0.15180018213451657,38.197509765625,2.296875,-3.3567871093750004,0.0,0.0,0.0,0.0,0.0,0.0,0.0,0.0,0.0,0.0,0.0,0.0,0.0,0.0,0.0,0.0,0.0,0.0,0.0,0.0,0.0,0.0,0.0,0.0,0.0,0.0,0.0,36.10424939753328,2.296875,-12.915144111987322
1707029429.068833,0.0,0.0,0.0,0.0,0.029827404208887465,0.1976065528838795,-0.051399009038529286,24.740454101562506,-0.4821044921875,2.3830078125,0.0,0.0,0.0,0.0,0.0,0.0,0.0,0.0,0.0,0.0,0.0,0.0,0.0,0.0,0.0,0.0,0.0,0.0,0.0,0.0,0.0,0.0,0.0,0.0,0.0,0.0,0.0,24.53806213458961,-0.4821044921875,-3.956299036344037
1707029429.1112971,0.0,0.0,0.0,0.0,0.13981595722916,1.07618339650102,0.025566346464760685,5.2158203125,0.4653564453125,12.4330322265625,0.0,0.0,0.0,0.0,0.0,0.0,0.0,0.0,0.0,0.0,0.0,0.0,0.0,0.0,0.0,0.0,0.0,0.0,0.0,0.0,0.0,0.0,0.0,0.0,0.0,0.0,0.0,8.192753919069535,0.4653564453125,10.708120988324703
1707029429.1153495,0.0,0.0,0.0,0.0,0.06418218227090965,0.9502158769402722,-0.03142530086293501,-4.002783203125,2.772998046875,14.8088623046875,0.0,0.0,0.0,0.0,0.0,0.0,0.0,0.0,0.0,0.0,0.0,0.0,0.0,0.0,0.0,0.0,0.0,0.0,0.0,0.0,0.0,0.0,0.0,0.0,0.0,0.0,0.0,-0.12438786467178042,2.772998046875,15.339791517147043
1707029429.1164248,0.0,0.0,0.0,0.0,-0.06524744670694134,0.42237734888656714,0.0055926382891664,-1.97626953125,-4.734912109375,9.486572265625,0.0,0.0,0.0,0.0,0.0,0.0,0.0,0.0,0.0,0.0,0.0,0.0,0.0,0.0,0.0,0.0,0.0,0.0,0.0,0.0,0.0,0.0,0.0,0.0,0.0,0.0,0.0,0.4890925105313362,-4.734912109375,9.677886294393765
1707029429.1307395,0.0,0.0,0.0,0.0,0.06631271114297303,0.2910835071456607,0.10359696640408236,-6.264965820312501,-5.696728515625001,12.549072265625,0.0,0.0,0.0,0.0,0.0,0.0,0.0,0.0,0.0,0.0,0.0,0.0,0.0,0.0,0.0,0.0,0.0,0.0,0.0,0.0,0.0,0.0,0.0,0.0,0.0,0.0,0.0,-2.884860866376938,-5.696728515625001,13.726127976935425
1707029429.132246,0.0,0.0,0.0,0.0,0.07483482663122659,-0.146740176063366,-0.19041601794066557,2.6856689453125,0.5790039062500001,9.1240966796875,0.0,0.0,0.0,0.0,0.0,0.0,0.0,0.0,0.0,0.0,0.0,0.0,0.0,0.0,0.0,0.0,0.0,0.0,0.0,0.0,0.0,0.0,0.0,0.0,0.0,0.0,0.0,4.907502040637853,0.5790039062500001,8.1472929016475
1707029429.13364,0.0,0.0,0.0,0.0,0.054062170128608526,-0.13502226726701735,-0.1920139145947131,12.7895263671875,1.4415283203125,3.91904296875,0.0,0.0,0.0,0.0,0.0,0.0,0.0,0.0,0.0,0.0,0.0,0.0,0.0,0.0,0.0,0.0,0.0,0.0,0.0,0.0,0.0,0.0,0.0,0.0,0.0,0.0,0.0,13.365008636011181,1.4415283203125,0.55446068141904
1707029429.1666763,0.0,0.0,0.0,0.0,0.06418218227090965,0.5422195979401329,-0.19281286292173683,13.2704345703125,2.624658203125,8.485278320312501,0.0,0.0,0.0,0.0,0.0,0.0,0.0,0.0,0.0,0.0,0.0,0.0,0.0,0.0,0.0,0.0,0.0,0.0,0.0,0.0,0.0,0.0,0.0,0.0,0.0,0.0,0.0,14.985956495616064,2.624658203125,4.850308213878076
1707029429.1677396,0.0,0.0,0.0,0.0,0.07803061993932169,1.3182647395892229,-0.16378440703987313,1.95712890625,3.658251953125,7.375122070312499,0.0,0.0,0.0,0.0,0.0,0.0,0.0,0.0,0.0,0.0,0.0,0.0,0.0,0.0,0.0,0.0,0.0,0.0,0.0,0.0,0.0,0.0,0.0,0.0,0.0,0.0,0.0,3.760023387562378,3.658251953125,6.6396538488594254
1707029429.168811,0.0,0.0,0.0,0.0,0.07057376888709982,1.5254586723973875,0.1531317626795562,-20.281884765625,5.9371826171875,28.2072998046875,0.0,0.0,0.0,0.0,0.0,0.0,0.0,0.0,0.0,0.0,0.0,0.0,0.0,0.0,0.0,0.0,0.0,0.0,0.0,0.0,0.0,0.0,0.0,0.0,0.0,0.0,0.0,-12.482363751897381,5.9371826171875,32.42217153558555
1707029429.1875117,0.0,0.0,0.0,0.0,-0.19228023070372097,0.1731054708551505,0.1342233189399936,-6.49345703125,0.5419189453125001,8.728125,0.0,0.0,0.0,0.0,0.0,0.0,0.0,0.0,0.0,0.0,0.0,0.0,0.0,0.0,0.0,0.0,0.0,0.0,0.0,0.0,0.0,0.0,0.0,0.0,0.0,0.0,0.0,-4.07298046358015,0.5419189453125001,10.087416932773696
1707029429.1886742,0.0,0.0,0.0,0.0,-0.14274543442824716,0.13741911224808867,0.345944625601293,-3.6271484375,-1.500146484375,4.4059326171875,0.0,0.0,0.0,0.0,0.0,0.0,0.0,0.0,0.0,0.0,0.0,0.0,0.0,0.0,0.0,0.0,0.0,0.0,0.0,0.0,0.0,0.0,0.0,0.0,0.0,0.0,0.0,-2.393926916633637,-1.500146484375,5.180498232088527
1707029429.1897435,0.0,0.0,0.0,0.0,-0.05725796343670361,0.479102680105255,0.3059972092501045,-8.01513671875,-0.05383300781250001,-0.576611328125,0.0,0.0,0.0,0.0,0.0,0.0,0.0,0.0,0.0,0.0,0.0,0.0,0.0,0.0,0.0,0.0,0.0,0.0,0.0,0.0,0.0,0.0,0.0,0.0,0.0,0.0,0.0,-7.900110719588043,-0.05383300781250001,1.4707643802549315
1707029429.216078,0.0,0.0,0.0,0.0,-0.038083203588133115,0.9909622416184845,0.251668723012488,-28.914306640625004,0.9295166015625,18.104638671875,0.0,0.0,0.0,0.0,0.0,0.0,0.0,0.0,0.0,0.0,0.0,0.0,0.0,0.0,0.0,0.0,0.0,0.0,0.0,0.0,0.0,0.0,0.0,0.0,0.0,0.0,0.0,-23.39066994211711,0.9295166015625,24.833276658672776
1707029429.2171714,0.0,0.0,0.0,0.0,-0.0932106381527733,-0.2929477199087162,0.20160129451899836,-25.7764404296875,-2.5325439453125,17.6440673828125,0.0,0.0,0.0,0.0,0.0,0.0,0.0,0.0,0.0,0.0,0.0,0.0,0.0,0.0,0.0,0.0,0.0,0.0,0.0,0.0,0.0,0.0,0.0,0.0,0.0,0.0,0.0,-20.471538190021278,-2.5325439453125,23.593518583902586
1707029429.2182236,0.0,0.0,0.0,0.0,-0.1512675499165007,-1.3760553352439424,-0.08335694211948017,-5.6692138671875005,-3.6163818359375,11.3276611328125,0.0,0.0,0.0,0.0,0.0,0.0,0.0,0.0,0.0,0.0,0.0,0.0,0.0,0.0,0.0,0.0,0.0,0.0,0.0,0.0,0.0,0.0,0.0,0.0,0.0,0.0,0.0,-2.6176406574922284,-3.6163818359375,12.393702029659487
1707029429.2474403,0.0,0.0,0.0,0.0,-0.0636495500528938,-1.4301175053725508,-0.1664475681299524,9.308325195312499,-1.385302734375,4.1523193359375,0.0,0.0,0.0,0.0,0.0,0.0,0.0,0.0,0.0,0.0,0.0,0.0,0.0,0.0,0.0,0.0,0.0,0.0,0.0,0.0,0.0,0.0,0.0,0.0,0.0,0.0,0.0,10.056193024132726,-1.385302734375,1.6612211384021656
1707029429.2484744,0.0,0.0,0.0,0.0,-0.008255799379245636,-0.85940208376857,-0.1139832946553914,11.3563720703125,-0.3146240234375,6.7386962890625,0.0,0.0,0.0,0.0,0.0,0.0,0.0,0.0,0.0,0.0,0.0,0.0,0.0,0.0,0.0,0.0,0.0,0.0,0.0,0.0,0.0,0.0,0.0,0.0,0.0,0.0,0.0,12.692160269447095,-0.3146240234375,3.6450352495232674
1707029429.24957,0.0,0.0,0.0,0.0,-0.01970739206658636,-0.3539341088715308,-0.15472965933360375,13.1747314453125,-1.3051513671875,5.00048828125,0.0,0.0,0.0,0.0,0.0,0.0,0.0,0.0,0.0,0.0,0.0,0.0,0.0,0.0,0.0,0.0,0.0,0.0,0.0,0.0,0.0,0.0,0.0,0.0,0.0,0.0,0.0,14.011381714966928,-1.3051513671875,1.5032012987337917
1707029429.288035,0.0,0.0,0.0,0.0,0.07403587830420282,0.2428802914152265,0.0167779148674992,7.786645507812499,1.1615966796875,8.9482421875,0.0,0.0,0.0,0.0,0.0,0.0,0.0,0.0,0.0,0.0,0.0,0.0,0.0,0.0,0.0,0.0,0.0,0.0,0.0,0.0,0.0,0.0,0.0,0.0,0.0,0.0,0.0,9.797888167286336,1.1615966796875,6.6861254828070456
1707029429.2891595,0.0,0.0,0.0,0.0,0.017843179303530896,0.5651227833148144,0.07563377495825035,-1.777685546875,-0.97138671875,12.0932861328125,0.0,0.0,0.0,0.0,0.0,0.0,0.0,0.0,0.0,0.0,0.0,0.0,0.0,0.0,0.0,0.0,0.0,0.0,0.0,0.0,0.0,0.0,0.0,0.0,0.0,0.0,0.0,1.3409605846521677,-0.97138671875,12.149467482324182
1707029429.290212,0.0,0.0,0.0,0.0,0.04953479627547383,0.39787626685783817,0.11771172018150232,-8.3632568359375,-3.0636962890625004,15.3782958984375,0.0,0.0,0.0,0.0,0.0,0.0,0.0,0.0,0.0,0.0,0.0,0.0,0.0,0.0,0.0,0.0,0.0,0.0,0.0,0.0,0.0,0.0,0.0,0.0,0.0,0.0,0.0,-4.198767605003146,-3.0636962890625004,16.994304935563886
1707029429.3122494,0.0,0.0,0.0,0.0,0.07297061386817112,-0.1265001517787638,-0.08868326429963862,-2.9847412109375,-1.03359375,10.6433837890625,0.0,0.0,0.0,0.0,0.0,0.0,0.0,0.0,0.0,0.0,0.0,0.0,0.0,0.0,0.0,0.0,0.0,0.0,0.0,0.0,0.0,0.0,0.0,0.0,0.0,0.0,0.0,-0.1937596404076185,-1.03359375,11.052273783221993
1707029429.313314,0.0,0.0,0.0,0.0,0.06072007285380662,-0.19387812735776852,-0.27244137951510605,2.9512451171875,-0.232080078125,8.017529296875,0.0,0.0,0.0,0.0,0.0,0.0,0.0,0.0,0.0,0.0,0.0,0.0,0.0,0.0,0.0,0.0,0.0,0.0,0.0,0.0,0.0,0.0,0.0,0.0,0.0,0.0,0.0,4.884363170432767,-0.232080078125,7.009537801259935
1707029429.3143919,0.0,0.0,0.0,0.0,0.06817692390602849,0.10226538585904274,-0.2953445648897875,4.09130859375,-0.016748046875000002,5.596240234375,0.0,0.0,0.0,0.0,0.0,0.0,0.0,0.0,0.0,0.0,0.0,0.0,0.0,0.0,0.0,0.0,0.0,0.0,0.0,0.0,0.0,0.0,0.0,0.0,0.0,0.0,0.0,5.3744879786846855,-0.016748046875000002,4.378537397020147
1707029429.351051,0.0,0.0,0.0,0.0,0.07989483270237714,0.4274373549577177,-0.29427930045375583,-1.0252197265625,2.2262939453125004,11.3156982421875,0.0,0.0,0.0,0.0,0.0,0.0,0.0,0.0,0.0,0.0,0.0,0.0,0.0,0.0,0.0,0.0,0.0,0.0,0.0,0.0,0.0,0.0,0.0,0.0,0.0,0.0,0.0,1.8721222694498254,2.2262939453125004,11.206750662177159
1707029429.3521297,0.0,0.0,0.0,0.0,0.05006742849348968,0.3392867228760949,-0.1262338356697559,-0.6220703125,1.59345703125,8.601318359375,0.0,0.0,0.0,0.0,0.0,0.0,0.0,0.0,0.0,0.0,0.0,0.0,0.0,0.0,0.0,0.0,0.0,0.0,0.0,0.0,0.0,0.0,0.0,0.0,0.0,0.0,0.0,1.5751459263231453,1.59345703125,8.478712420161619
1707029429.3532088,0.0,0.0,0.0,0.0,0.013582121559404116,0.4530037014224784,0.10013485698697935,-5.553173828125001,-0.27155761718750004,11.2558837890625,0.0,0.0,0.0,0.0,0.0,0.0,0.0,0.0,0.0,0.0,0.0,0.0,0.0,0.0,0.0,0.0,0.0,0.0,0.0,0.0,0.0,0.0,0.0,0.0,0.0,0.0,0.0,-2.523545341037498,-0.27155761718750004,12.29489236837722
1707029429.370564,0.0,0.0,0.0,0.0,0.03488741028003802,0.262321367372805,0.20213392673701416,-7.175341796875,0.6447998046875001,10.25458984375,0.0,0.0,0.0,0.0,0.0,0.0,0.0,0.0,0.0,0.0,0.0,0.0,0.0,0.0,0.0,0.0,0.0,0.0,0.0,0.0,0.0,0.0,0.0,0.0,0.0,0.0,0.0,-4.346321111914451,0.6447998046875001,11.7367642711971
1707029429.3716738,0.0,0.0,0.0,0.0,0.008788431597261486,0.09560748313384464,0.17443705140019009,-7.2052490234375,1.691552734375,10.83359375,0.0,0.0,0.0,0.0,0.0,0.0,0.0,0.0,0.0,0.0,0.0,0.0,0.0,0.0,0.0,0.0,0.0,0.0,0.0,0.0,0.0,0.0,0.0,0.0,0.0,0.0,0.0,-4.228710814911729,1.691552734375,12.304485843530184
1707029429.3727438,0.0,0.0,0.0,0.0,-0.016245282649483352,-0.05566006678265608,0.1355548994850332,-4.632031250000001,1.2166259765625,8.24482421875,0.0,0.0,0.0,0.0,0.0,0.0,0.0,0.0,0.0,0.0,0.0,0.0,0.0,0.0,0.0,0.0,0.0,0.0,0.0,0.0,0.0,0.0,0.0,0.0,0.0,0.0,0.0,-2.3944823664942128,1.2166259765625,9.148731829910165
1707029429.408316,0.0,0.0,0.0,0.0,-0.0346210941710301,-0.010120012142301104,0.021837920938649752,-3.3986572265625004,2.0647949218750004,7.9337890625,0.0,0.0,0.0,0.0,0.0,0.0,0.0,0.0,0.0,0.0,0.0,0.0,0.0,0.0,0.0,0.0,0.0,0.0,0.0,0.0,0.0,0.0,0.0,0.0,0.0,0.0,0.0,-1.2799875368559421,2.0647949218750004,8.535661177518914
1707029429.4093904,0.0,0.0,0.0,0.0,-0.05725796343670361,0.08815063208162278,0.02370213370170522,-5.2194091796875,1.6867675781250002,9.61337890625,0.0,0.0,0.0,0.0,0.0,0.0,0.0,0.0,0.0,0.0,0.0,0.0,0.0,0.0,0.0,0.0,0.0,0.0,0.0,0.0,0.0,0.0,0.0,0.0,0.0,0.0,0.0,-2.6163597042178695,1.6867675781250002,10.621391061357434
1707029429.410463,0.0,0.0,0.0,0.0,-0.0993359086599556,0.049002164057457984,0.09773801200590804,-6.645385742187501,-0.4821044921875,10.67568359375,0.0,0.0,0.0,0.0,0.0,0.0,0.0,0.0,0.0,0.0,0.0,0.0,0.0,0.0,0.0,0.0,0.0,0.0,0.0,0.0,0.0,0.0,0.0,0.0,0.0,0.0,0.0,-3.7270425638664295,-0.4821044921875,12.010017717866189
1707029429.4276638,0.0,0.0,0.0,0.0,-0.09161274149872578,-0.09853696033293181,0.18216021856141984,-5.6093994140625005,-1.7884521484375002,10.2246826171875,0.0,0.0,0.0,0.0,0.0,0.0,0.0,0.0,0.0,0.0,0.0,0.0,0.0,0.0,0.0,0.0,0.0,0.0,0.0,0.0,0.0,0.0,0.0,0.0,0.0,0.0,0.0,-2.8389335372055324,-1.7884521484375002,11.3114964872041
1707029429.4287171,0.0,0.0,0.0,0.0,-0.06072007285380662,-0.18216021856141984,0.18482337965149911,-3.1282958984375004,-1.5551757812500002,8.540307617187501,0.0,0.0,0.0,0.0,0.0,0.0,0.0,0.0,0.0,0.0,0.0,0.0,0.0,0.0,0.0,0.0,0.0,0.0,0.0,0.0,0.0,0.0,0.0,0.0,0.0,0.0,0.0,-0.8649212489048415,-1.5551757812500002,9.054004675145945
1707029429.429753,0.0,0.0,0.0,0.0,-0.04500742242233912,-0.09880327644193974,0.13315805450396187,-2.8052978515625,-2.2789306640625,7.961303710937501,0.0,0.0,0.0,0.0,0.0,0.0,0.0,0.0,0.0,0.0,0.0,0.0,0.0,0.0,0.0,0.0,0.0,0.0,0.0,0.0,0.0,0.0,0.0,0.0,0.0,0.0,0.0,-0.6989834471762228,-2.2789306640625,8.412102885387341
1707029429.4669013,0.0,0.0,0.0,0.0,0.01251685712337242,-0.008522115488253561,0.07297061386817112,-4.4370361328125005,-1.1759521484375,9.2724365234375,0.0,0.0,0.0,0.0,0.0,0.0,0.0,0.0,0.0,0.0,0.0,0.0,0.0,0.0,0.0,0.0,0.0,0.0,0.0,0.0,0.0,0.0,0.0,0.0,0.0,0.0,0.0,-1.945751154813693,-1.1759521484375,10.0935336314198
1707029429.4681034,0.0,0.0,0.0,0.0,0.019174759848570515,-0.040213732460196494,-0.03275688140797463,-4.6715087890625,0.15671386718750002,10.7008056640625,0.0,0.0,0.0,0.0,0.0,0.0,0.0,0.0,0.0,0.0,0.0,0.0,0.0,0.0,0.0,0.0,0.0,0.0,0.0,0.0,0.0,0.0,0.0,0.0,0.0,0.0,0.0,-1.8110746149984887,0.15671386718750002,11.534740784483557
1707029429.469472,0.0,0.0,0.0,0.0,0.0055926382891664,-0.1310275256318985,-0.06977482056007604,-3.390283203125,-0.3026611328125,10.29765625,0.0,0.0,0.0,0.0,0.0,0.0,0.0,0.0,0.0,0.0,0.0,0.0,0.0,0.0,0.0,0.0,0.0,0.0,0.0,0.0,0.0,0.0,0.0,0.0,0.0,0.0,0.0,-0.6736000008398566,-0.3026611328125,10.820443959441963
