timestamp,orien_x,orien_y,orien_z,orien_w,ang_vel_x,ang_vel_y,ang_vel_z,lin_acc_x,lin_acc_y,lin_acc_z,orien_cov_01,orien_cov_02,orien_cov_03,orien_cov_04,orien_cov_05,orien_cov_06,orien_cov_07,orien_cov_08,orien_cov_09,ang_vel_cov_01,ang_vel_cov_02,ang_vel_cov_03,ang_vel_cov_04,ang_vel_cov_05,ang_vel_cov_06,ang_vel_cov_07,ang_vel_cov_08,ang_vel_cov_09,lin_acc_cov_01,lin_acc_cov_02,lin_acc_cov_03,lin_acc_cov_04,lin_acc_cov_05,lin_acc_cov_06,lin_acc_cov_07,lin_acc_cov_08,lin_acc_cov_09,lin_acc_y_calib,lin_acc_x_calib,lin_acc_z_calib
1707028608.091885,-0.6889386177062988,0.1487085521221161,-0.21739612519741056,0.6752690672874451,-0.003214420439828128,-0.0024909955963507598,-0.0003387781893606205,0.9790462255477904,-9.764791488647461,0.0727944001555443,1.3214700738481465e-09,1.5578144461101051e-10,4.516122528761601e-10,1.5578142729551395e-10,3.975133777812265e-10,-6.369237357531414e-10,4.516122528761601e-10,-6.369236664911553e-10,1.461944325156329e-09,6.090633096098318e-10,0.0,0.0,0.0,6.280380462878344e-10,0.0,0.0,-0.0,6.368115313355767e-10,0.009366241283714771,0.0,0.0,0.0,0.006357183679938316,0.0,0.0,-0.0,0.007645312696695326,-9.813745489498356,0.009154008518741708,0.0727944001555443
1707028608.099408,-0.6888770461082457,0.14875082671642303,-0.21736575663089752,0.6753323078155518,0.004189930132171959,0.001817975109041564,-0.002437776065571994,0.9790462255477904,-9.800712585449217,0.08947557210922241,1.3214606542180298e-09,1.5572099621259717e-10,4.51572808175047e-10,1.557210135280937e-10,3.9767351149320773e-10,-6.371101197578738e-10,4.515727735440539e-10,-6.371101890198599e-10,1.46192451622829e-09,6.090633096098318e-10,0.0,0.0,0.0,6.280380462878344e-10,0.0,0.0,-0.0,6.368115313355767e-10,0.009366241283714771,0.0,0.0,0.0,0.006357183679938316,0.0,0.0,-0.0,0.007645312696695326,-9.849490712325078,0.00560376338508517,0.08947557210922241
1707028608.1244829,-0.6888494491577148,0.14873801171779633,-0.21737493574619293,0.6753603219985962,-0.0042880127453565455,-0.0025096678931166238,0.0012671746036657917,0.9838108420372008,-9.709671974182129,0.05850567668676376,1.3214168806427823e-09,1.5568968979485688e-10,4.515591981947683e-10,1.556897071103534e-10,3.9768680979454876e-10,-6.371205090557966e-10,4.515591981947683e-10,-6.371205090557966e-10,1.4618724312147043e-09,6.090633096098318e-10,0.0,0.0,0.0,6.280380462878344e-10,0.0,0.0,-0.0,6.368115313355767e-10,0.009366241283714771,0.0,0.0,0.0,0.006357183679938316,0.0,0.0,-0.0,0.007645312696695326,-9.759366755437448,0.01934300881897799,0.05850567668676376
1707028608.1671102,-0.6889452338218689,0.14865823090076447,-0.21747486293315887,0.6752480268478394,0.001521573723978728,0.0012493263524219992,0.0002293608865861092,0.9909808039665222,-9.774274826049805,0.13480553030967712,1.3214970860227455e-09,1.55738796543038e-10,4.518632583139715e-10,1.5573877922754143e-10,3.9714338025120756e-10,-6.366033298052064e-10,4.518632929449646e-10,-6.366033990671927e-10,1.4621580676455912e-09,6.090633096098318e-10,0.0,0.0,0.0,6.280380462878344e-10,0.0,0.0,-0.0,6.368115313355767e-10,0.009366241283714771,0.0,0.0,0.0,0.006357183679938316,0.0,0.0,-0.0,0.007645312696695326,-9.824361943935862,0.020092872513503224,0.13480553030967712
1707028608.172125,-0.6888888478279114,0.14863628149032593,-0.21748775243759155,0.6753062605857849,0.007368241331547053,-0.00549326143985644,0.001783096280254908,0.9814742803573608,-9.805502891540527,0.14910830557346344,1.3214069069167767e-09,1.5569651210049274e-10,4.517899098706376e-10,1.5569647746949964e-10,3.9719671198054383e-10,-6.366527828633184e-10,4.5178997913262364e-10,-6.366529213872907e-10,1.4620504345191125e-09,6.090633096098318e-10,0.0,0.0,0.0,6.280380462878344e-10,0.0,0.0,-0.0,6.368115313355767e-10,0.009366241283714771,0.0,0.0,0.0,0.006357183679938316,0.0,0.0,-0.0,0.007645312696695326,-9.854497540190234,0.0075464824423377985,0.14910830557346344
1707028608.1921854,-0.6887961030006409,0.1486489176750183,-0.21746301651000977,0.6754060387611389,-0.0027667560519889596,0.002752775496178806,0.005067008971800178,0.9456703662872313,-9.63576602935791,0.010823803953826427,1.3212045233932432e-09,1.5560148465549347e-10,4.5155247978211167e-10,1.556014673399969e-10,3.974613620296271e-10,-6.369136927651494e-10,4.5155247978211167e-10,-6.369136927651494e-10,1.4618206232490634e-09,6.090633096098318e-10,0.0,0.0,0.0,6.280380462878344e-10,0.0,0.0,-0.0,6.368115313355767e-10,0.009366241283714771,0.0,0.0,0.0,0.006357183679938316,0.0,0.0,-0.0,0.007645312696695326,-9.682053066500975,-0.011306266438830481,0.010823803953826427
1707028608.204723,-0.6888909935951233,0.14872433245182037,-0.21738080680370328,0.6753190755844116,-2.0436769041905528e-05,-0.001390496390508242,-0.003016921812356964,0.9767324924468994,-9.788793563842772,0.09903715550899504,1.321385989796959e-09,1.5568745609580348e-10,4.5160103243440356e-10,1.5568743878030696e-10,3.975350914138849e-10,-6.369883571862202e-10,4.5160103243440356e-10,-6.36988218662248e-10,1.4619249318002071e-09,6.090633096098318e-10,0.0,0.0,0.0,6.280380462878344e-10,0.0,0.0,-0.0,6.368115313355767e-10,0.009366241283714771,0.0,0.0,0.0,0.006357183679938316,0.0,0.0,-0.0,0.007645312696695326,-9.83740137092001,0.004479369633424657,0.09903715550899504
1707028608.2323053,-0.6887689232826233,0.1486605852842331,-0.2174411863088608,0.6754381656646729,-0.00645165199934724,-0.001499924226293214,0.005555303732286065,0.9504808783531189,-9.654903411865234,0.03944814205169678,1.3211601957221067e-09,1.5559119925055006e-10,4.514579718020085e-10,1.555911819350535e-10,3.9760719314146816e-10,-6.370430741552797e-10,4.5145800643300156e-10,-6.370430741552797e-10,1.4617157606020307e-09,6.090633096098318e-10,0.0,0.0,0.0,6.280380462878344e-10,0.0,0.0,-0.0,6.368115313355767e-10,0.009366241283714771,0.0,0.0,0.0,0.006357183679938316,0.0,0.0,-0.0,0.007645312696695326,-9.701572194855167,-0.008410741640067831,0.03944814205169678
1707028608.2348127,-0.6887996792793274,0.1486583799123764,-0.2174408435821533,0.6754074096679688,-0.007516326616093486,-0.0004654950515562352,0.005562721572393537,0.971921980381012,-9.683447837829588,0.03705568984150887,1.3211881775645117e-09,1.556102116657485e-10,4.51493503200904e-10,1.556102116657485e-10,3.975553505448341e-10,-6.369907813557355e-10,4.514935378318971e-10,-6.369907813557355e-10,1.4617523309307183e-09,6.090633096098318e-10,0.0,0.0,0.0,6.280380462878344e-10,0.0,0.0,-0.0,6.368115313355767e-10,0.009366241283714771,0.0,0.0,0.0,0.006357183679938316,0.0,0.0,-0.0,0.007645312696695326,-9.732095985393709,0.010104206941125238,0.03705568984150887
1707028608.2448428,-0.6887832880020142,0.14862370491027832,-0.21747881174087524,0.6754195094108582,0.003644375846228481,0.00285762004200466,-0.0013582023104737103,0.9957225918769836,-9.807746887207031,0.08947518467903137,1.3212017529137972e-09,1.5560505164778027e-10,4.5156016786257437e-10,1.5560505164778027e-10,3.974641325090731e-10,-6.369039960870884e-10,4.515602371245605e-10,-6.369039960870884e-10,1.4617587030334443e-09,6.090633096098318e-10,0.0,0.0,0.0,6.280380462878344e-10,0.0,0.0,-0.0,6.368115313355767e-10,0.009366241283714771,0.0,0.0,0.0,0.006357183679938316,0.0,0.0,-0.0,0.007645312696695326,-9.858138774322883,0.02150324824615979,0.08947518467903137
1707028608.2473502,-0.6887590885162354,0.14860178530216217,-0.2175057679414749,0.6754403114318848,0.00683291420864916,0.0023806109470970484,-0.0024301558876339497,1.0004873275756836,-9.812493324279783,0.10378339141607285,1.3211748792631702e-09,1.5560354519958147e-10,4.5155067897047176e-10,1.5560349325309186e-10,3.974543665690257e-10,-6.368811396316584e-10,4.5155067897047176e-10,-6.368811396316584e-10,1.4617261498999534e-09,6.090633096098318e-10,0.0,0.0,0.0,6.280380462878344e-10,0.0,0.0,-0.0,6.368115313355767e-10,0.009366241283714771,0.0,0.0,0.0,0.006357183679938316,0.0,0.0,-0.0,0.007645312696695326,-9.86333289274181,0.025775543298498627,0.10378339141607285
1707028608.2573802,-0.6886695027351379,0.1485947221517563,-0.2175166308879852,0.6755297780036926,0.007892418027519494,0.0013448783123155908,-0.0019058254877310843,0.9457162022590637,-9.700445175170898,0.07997407019138336,1.3210270741847242e-09,1.5549180830042324e-10,4.514758760254285e-10,1.554917909849267e-10,3.9750807923928597e-10,-6.369621761554552e-10,4.514758760254285e-10,-6.369621761554552e-10,1.461646637139852e-09,6.090633096098318e-10,0.0,0.0,0.0,6.280380462878344e-10,0.0,0.0,-0.0,6.368115313355767e-10,0.009366241283714771,0.0,0.0,0.0,0.006357183679938316,0.0,0.0,-0.0,0.007645312696695326,-9.746420065677635,-0.01765318860836329,0.07997407019138336
1707028608.2598877,-0.688668727874756,0.1486291140317917,-0.2174861431121826,0.6755328178405762,0.0031131025019490275,0.0023239615560231657,-0.0008314660279407985,0.9266573786735535,-9.664694786071776,0.05613569915294647,1.3210647527051904e-09,1.5551310636116472e-10,4.5143321064195956e-10,1.555131409921578e-10,3.9763233524244096e-10,-6.370777051483552e-10,4.5143321064195956e-10,-6.370777051483552e-10,1.4616290445953695e-09,6.090633096098318e-10,0.0,0.0,0.0,6.280380462878344e-10,0.0,0.0,-0.0,6.368115313355767e-10,0.009366241283714771,0.0,0.0,0.0,0.006357183679938316,0.0,0.0,-0.0,0.007645312696695326,-9.708961044657093,-0.03308532460390656,0.05613569915294647
1707028608.2674103,-0.6887468099594116,0.1486634463071823,-0.21743279695510864,0.6754628419876099,-0.006453028832862736,0.002178531240298592,0.003450828268014476,0.9432879686355591,-9.621418952941895,-0.0034806125331670046,1.3211182229584992e-09,1.555628364672212e-10,4.5141257057008643e-10,1.5556280183622807e-10,3.9768199608651126e-10,-6.371130980232785e-10,4.514126398320727e-10,-6.371130287612921e-10,1.4616365248898738e-09,6.090633096098318e-10,0.0,0.0,0.0,6.280380462878344e-10,0.0,0.0,-0.0,6.368115313355767e-10,0.009366241283714771,0.0,0.0,0.0,0.006357183679938316,0.0,0.0,-0.0,0.007645312696695326,-9.667540771902935,-0.01225901286752673,-0.0034806125331670046
1707028608.2699175,-0.6887780427932739,0.14867642521858215,-0.21742288768291476,0.6754313111305237,-0.009631466948512019,0.00265789465809986,0.003451277676460788,0.9551997780799864,-9.645259857177734,-0.0011028237640857697,1.3211739095953643e-09,1.5558098310759275e-10,4.514651404175752e-10,1.555809138456066e-10,3.9765127839565325e-10,-6.370854624908042e-10,4.5146520967956125e-10,-6.370854624908042e-10,1.4617002459171328e-09,6.090633096098318e-10,0.0,0.0,0.0,6.280380462878344e-10,0.0,0.0,-0.0,6.368115313355767e-10,0.009366241283714771,0.0,0.0,0.0,0.006357183679938316,0.0,0.0,-0.0,0.007645312696695326,-9.692442246452845,-0.0027618299029305016,-0.0011028237640857697
1707028608.2724254,-0.6888090372085571,0.14868870377540588,-0.2174111306667328,0.6754007339477539,-0.009108047588995399,0.0010875786479924655,0.005046104196965367,0.9671115279197693,-9.676283836364746,0.022736325860023495,1.3212262716568946e-09,1.5559945874239855e-10,4.5151313897397784e-10,1.5559949337339162e-10,3.9762076849075374e-10,-6.370585195781912e-10,4.5151310434298476e-10,-6.370585888401775e-10,1.4617591186053612e-09,6.090633096098318e-10,0.0,0.0,0.0,6.280380462878344e-10,0.0,0.0,-0.0,6.368115313355767e-10,0.009366241283714771,0.0,0.0,0.0,0.006357183679938316,0.0,0.0,-0.0,0.007645312696695326,-9.724491620871087,0.006025357829278266,0.022736325860023495
1707028608.2749329,-0.6888368725776672,0.14870163798332214,-0.21740448474884036,0.6753716468811035,-0.006473662610243232,0.0048012775025663085,0.004008383163875878,0.9694938659667968,-9.719367027282713,0.044184986501932144,1.321282789437594e-09,1.5562531077872944e-10,4.5155583898843997e-10,1.5562524151674327e-10,3.975996782159708e-10,-6.370380872922768e-10,4.5155587361943304e-10,-6.370380180302905e-10,1.461818683913451e-09,6.090633096098318e-10,0.0,0.0,0.0,6.280380462878344e-10,0.0,0.0,-0.0,6.368115313355767e-10,0.009366241283714771,0.0,0.0,0.0,0.006357183679938316,0.0,0.0,-0.0,0.007645312696695326,-9.767599328635496,0.004137924243007074,0.044184986501932144
1707028608.2824552,-0.6889112591743469,0.14870963990688324,-0.21739804744720456,0.6752960681915283,0.0026130778689251993,0.0007463674957619422,-0.003000225820442677,0.983902394771576,-9.80071544647217,0.1205037534236908,1.3213887602764049e-09,1.5569008805127724e-10,4.51657134643186e-10,1.5569010536677378e-10,3.9747763859637256e-10,-6.369132079312464e-10,4.51657134643186e-10,-6.369131386692601e-10,1.4619369833857973e-09,6.090633096098318e-10,0.0,0.0,0.0,6.280380462878344e-10,0.0,0.0,-0.0,6.368115313355767e-10,0.009366241283714771,0.0,0.0,0.0,0.006357183679938316,0.0,0.0,-0.0,0.007645312696695326,-9.849973516598947,0.010435873457158129,0.1205037534236908
1707028608.2924852,-0.6887820959091187,0.14867587387561798,-0.2174303233623505,0.6754248738288879,0.009513135207884493,-0.00598225840103969,-0.0009094322816291118,0.9553371667861937,-9.741113662719727,0.08713927119970322,1.3212599329821639e-09,1.556563401485251e-10,4.514790967077846e-10,1.5565630551753208e-10,3.9766783201034335e-10,-6.370742420490477e-10,4.514790620767915e-10,-6.370742420490477e-10,1.4616929041466008e-09,6.090633096098318e-10,0.0,0.0,0.0,6.280380462878344e-10,0.0,0.0,-0.0,6.368115313355767e-10,0.009366241283714771,0.0,0.0,0.0,0.006357183679938316,0.0,0.0,-0.0,0.007645312696695326,-9.787840319078123,-0.012098780792867414,0.08713927119970322
1707028608.2949927,-0.6887485980987549,0.14867788553237915,-0.21743251383304596,0.6754578948020935,0.008935230275739194,0.0013559815357497187,-0.0003132843379127961,0.9434254169464112,-9.702905654907225,0.06091783940792084,1.321217267598695e-09,1.5563987311131772e-10,4.514163107173386e-10,1.5563985579582115e-10,3.977479334973271e-10,-6.37150984329703e-10,4.514163107173386e-10,-6.371510535916892e-10,1.4616332003145386e-09,6.090633096098318e-10,0.0,0.0,0.0,6.280380462878344e-10,0.0,0.0,-0.0,6.368115313355767e-10,0.009366241283714771,0.0,0.0,0.0,0.006357183679938316,0.0,0.0,-0.0,0.007645312696695326,-9.748642089895537,-0.020175938349536793,0.06091783940792084
1707028608.2975004,-0.6887176036834717,0.14869222044944763,-0.2174225151538849,0.6754895448684692,0.006258824046810866,0.0013110664384774267,0.0028979703145954314,0.9434254169464112,-9.666985511779783,0.04185177758336067,1.3211971816227112e-09,1.5562621118454942e-10,4.5136439885871837e-10,1.5562621118454942e-10,3.978450388019109e-10,-6.372460117747022e-10,4.5136439885871837e-10,-6.372460117747022e-10,1.461593998030377e-09,6.090633096098318e-10,0.0,0.0,0.0,6.280380462878344e-10,0.0,0.0,-0.0,6.368115313355767e-10,0.009366241283714771,0.0,0.0,0.0,0.006357183679938316,0.0,0.0,-0.0,0.007645312696695326,-9.712897816073825,-0.016625787471843845,0.04185177758336067
1707028608.322575,-0.6887465119361876,0.14869205653667447,-0.21740609407424927,0.6754654049873352,0.006337427872724951,-0.0007722621217559278,-0.0040682322494607435,0.9981278181076048,-9.812526702880861,0.09901930391788481,1.3212222544616979e-09,1.5564331889512873e-10,4.5136924719774895e-10,1.5564330157963216e-10,3.978897127829784e-10,-6.37268383396229e-10,4.51369212566756e-10,-6.37268383396229e-10,1.4615577047496338e-09,6.090633096098318e-10,0.0,0.0,0.0,6.280380462878344e-10,0.0,0.0,-0.0,6.368115313355767e-10,0.009366241283714771,0.0,0.0,0.0,0.006357183679938316,0.0,0.0,-0.0,0.007645312696695326,-9.863132906880761,0.02342428731151114,0.09901930391788481
1707028608.330098,-0.688707172870636,0.14864736795425415,-0.2174682468175888,0.6754952669143677,0.010043903227736175,-0.00019330860241186063,-0.004595060923400224,0.9743043184280397,-9.726531028747559,0.07519854605197905,1.3211693383042788e-09,1.5562796004969972e-10,4.5139934153073166e-10,1.556279081032101e-10,3.9776313650328727e-10,-6.371442659170465e-10,4.5139941079271776e-10,-6.371443351790326e-10,1.4615716956708364e-09,6.090633096098318e-10,0.0,0.0,0.0,6.280380462878344e-10,0.0,0.0,-0.0,6.368115313355767e-10,0.009366241283714771,0.0,0.0,0.0,0.006357183679938316,0.0,0.0,-0.0,0.007645312696695326,-9.775203693158122,0.008216773354853935,0.07519854605197905
1707028608.3401277,-0.6887428760528564,0.1486733704805374,-0.2174367606639862,0.6754633188247681,-0.0032624075351142135,-0.0030281845913939925,0.004994360327948392,0.9338959455490112,-9.611992835998535,0.05617979168891907,1.3211455121810424e-09,1.5556522600574338e-10,4.514642746427482e-10,1.5556515674375723e-10,3.9764182413454367e-10,-6.370835231551919e-10,4.514642746427482e-10,-6.370834538932057e-10,1.4617028778726065e-09,6.090633096098318e-10,0.0,0.0,0.0,6.280380462878344e-10,0.0,0.0,-0.0,6.368115313355767e-10,0.009366241283714771,0.0,0.0,0.0,0.006357183679938316,0.0,0.0,-0.0,0.007645312696695326,-9.657232550056792,-0.020673425542146462,0.05617979168891907
1707028608.3451428,-0.6887998580932617,0.14868925511837003,-0.2173989713191986,0.6754139065742493,-0.01013256152733916,-0.004700573080037237,0.004984819240991563,0.948121428489685,-9.659725189208984,0.03468232974410057,1.3211653211090816e-09,1.5557516510075604e-10,4.5147019654256413e-10,1.555751477852595e-10,3.9763011885888415e-10,-6.370784670302029e-10,4.5147023117355726e-10,-6.370783977682167e-10,1.461717284365726e-09,6.090633096098318e-10,0.0,0.0,0.0,6.280380462878344e-10,0.0,0.0,-0.0,6.368115313355767e-10,0.009366241283714771,0.0,0.0,0.0,0.006357183679938316,0.0,0.0,-0.0,0.007645312696695326,-9.706137169056328,-0.011235197508636774,0.03468232974410057
1707028608.3476503,-0.6888306140899657,0.1486712098121643,-0.2174108922481537,0.675382673740387,-0.008522012733220636,-0.0025704818544745297,0.0012539490436424688,0.9647977948188781,-9.69789123535156,0.02990088425576687,1.3211858226569824e-09,1.5561713786436364e-10,4.5147854261189535e-10,1.5561717249535667e-10,3.9759964358497767e-10,-6.370214644156005e-10,4.514785772428885e-10,-6.370215336775865e-10,1.4616973369137142e-09,6.090633096098318e-10,0.0,0.0,0.0,6.280380462878344e-10,0.0,0.0,-0.0,6.368115313355767e-10,0.009366241283714771,0.0,0.0,0.0,0.006357183679938316,0.0,0.0,-0.0,0.007645312696695326,-9.745764550704628,0.0015873956691404567,0.02990088425576687
1707028608.3501575,-0.6888587474822998,0.14868484437465668,-0.217397466301918,0.6753553152084352,-0.006447152193248809,0.0011285829425105305,0.0034300904609010367,0.9767095446586608,-9.738493919372559,0.037042364478111274,1.3212115881158307e-09,1.5559680947142827e-10,4.515469388232196e-10,1.5559680947142827e-10,3.9752061565877924e-10,-6.369743662650177e-10,4.515469388232196e-10,-6.369742970030315e-10,1.4617879315915998e-09,6.090633096098318e-10,0.0,0.0,0.0,6.280380462878344e-10,0.0,0.0,-0.0,6.368115313355767e-10,0.009366241283714771,0.0,0.0,0.0,0.006357183679938316,0.0,0.0,-0.0,0.007645312696695326,-9.787345731475328,0.009427876500630705,0.037042364478111274
1707028608.3526652,-0.6888478398323059,0.14866429567337036,-0.21742233633995056,0.6753629446029663,-0.00381896296531637,0.0016880653792861926,0.005056984146585167,0.9885526299476624,-9.774273872375488,0.05132219940423965,1.3212419248657646e-09,1.5564650494649164e-10,4.5153357125989246e-10,1.5564650494649164e-10,3.9754665816557205e-10,-6.369684097342089e-10,4.5153364052187856e-10,-6.369683404722227e-10,1.4617386170574607e-09,6.090633096098318e-10,0.0,0.0,0.0,6.280380462878344e-10,0.0,0.0,-0.0,6.368115313355767e-10,0.009366241283714771,0.0,0.0,0.0,0.006357183679938316,0.0,0.0,-0.0,0.007645312696695326,-9.824121007464939,0.01767668138026468,0.05132219940423965
1707028608.3551729,-0.6888698935508728,0.1486821472644806,-0.2174039781093597,0.6753424406051636,-0.0016604935989414232,0.0006770181548904293,0.00130060455834689,0.9909349083900452,-9.805384635925295,0.07039031386375427,1.3212380461945404e-09,1.5559587443461524e-10,4.5160407996179423e-10,1.5559583980362214e-10,3.9745706778648564e-10,-6.369207574877369e-10,4.5160411459278726e-10,-6.369207574877369e-10,1.4618444493722995e-09,6.090633096098318e-10,0.0,0.0,0.0,6.280380462878344e-10,0.0,0.0,-0.0,6.368115313355767e-10,0.009366241283714771,0.0,0.0,0.0,0.006357183679938316,0.0,0.0,-0.0,0.007645312696695326,-9.855314900402798,0.016972477851113887,0.07039031386375427
1707028608.3576803,-0.6888450384140015,0.14867086708545685,-0.2174247056245804,0.6753636002540588,0.0020575857526308823,0.0044117444093467895,-0.002414574834382474,0.9909349083900452,-9.812567710876465,0.09185168147087096,1.3212730927595327e-09,1.5565007193877844e-10,4.5156383874784044e-10,1.556500546232819e-10,3.975446495679737e-10,-6.369695871879732e-10,4.515638733788335e-10,-6.36969379402015e-10,1.461768261187533e-09,6.090633096098318e-10,0.0,0.0,0.0,6.280380462878344e-10,0.0,0.0,-0.0,6.368115313355767e-10,0.009366241283714771,0.0,0.0,0.0,0.006357183679938316,0.0,0.0,-0.0,0.007645312696695326,-9.862462806162124,0.01626254193153931,0.09185168147087096
1707028608.3601875,-0.6888137459754944,0.14866736531257627,-0.21743573248386383,0.675392746925354,0.006811647930492372,0.003426774513163492,-0.0008101711416074522,0.983788013458252,-9.810237884521484,0.10139115154743195,1.3212584092184686e-09,1.5563466114685982e-10,4.515571203351838e-10,1.5563462651586675e-10,3.9756456238899213e-10,-6.369909198797079e-10,4.515571203351838e-10,-6.369908506177217e-10,1.4617569022218044e-09,6.090633096098318e-10,0.0,0.0,0.0,6.280380462878344e-10,0.0,0.0,-0.0,6.368115313355767e-10,0.009366241283714771,0.0,0.0,0.0,0.006357183679938316,0.0,0.0,-0.0,0.007645312696695326,-9.859438026830961,0.009380906369536923,0.10139115154743195
1707028608.3626952,-0.6887794733047485,0.14866113662719727,-0.21744820475578308,0.6754250526428223,0.011043235728923857,0.0029611218240525577,-0.00028157461239377787,0.9838337302207946,-9.78870677947998,0.11333538591861723,1.3212322281877035e-09,1.5563105952357995e-10,4.515178487890361e-10,1.556310248925869e-10,3.976123877904295e-10,-6.370292217580494e-10,4.515178834200292e-10,-6.370292217580494e-10,1.4617136827424464e-09,6.090633096098318e-10,0.0,0.0,0.0,6.280380462878344e-10,0.0,0.0,-0.0,6.368115313355767e-10,0.009366241283714771,0.0,0.0,0.0,0.006357183679938316,0.0,0.0,-0.0,0.007645312696695326,-9.83801685904349,0.01155441619276798,0.11333538591861723
1707028608.365203,-0.6887457370758057,0.14865031838417053,-0.2174646556377411,0.6754565238952637,0.011610928062186183,0.002452148813475341,-0.004035549748410836,0.976686716079712,-9.75763988494873,0.10380620509386063,1.321199259482296e-09,1.5562222862034572e-10,4.5148515713157287e-10,1.5562222862034572e-10,3.97644733137962e-10,-6.370522167374517e-10,4.5148512250057975e-10,-6.370522859994377e-10,1.461668385403503e-09,6.090633096098318e-10,0.0,0.0,0.0,6.280380462878344e-10,0.0,0.0,-0.0,6.368115313355767e-10,0.009366241283714771,0.0,0.0,0.0,0.006357183679938316,0.0,0.0,-0.0,0.007645312696695326,-9.806395699867949,0.00751287696325742,0.10380620509386063
1707028608.3677104,-0.6887137293815613,0.14864084124565125,-0.21747784316539764,0.6754869818687439,0.009495230650547744,0.0013711208527476862,-0.00351112650197132,0.9695395827293397,-9.72657299041748,0.08950722962617874,1.3211632432494971e-09,1.5560309499667147e-10,4.5146122711535765e-10,1.5560306036567842e-10,3.9766575415075884e-10,-6.370707789497401e-10,4.514612617463507e-10,-6.370708482117262e-10,1.4616326462186496e-09,6.090633096098318e-10,0.0,0.0,0.0,6.280380462878344e-10,0.0,0.0,-0.0,6.368115313355767e-10,0.009366241283714771,0.0,0.0,0.0,0.006357183679938316,0.0,0.0,-0.0,0.007645312696695326,-9.774774528910411,0.003471219108119983,0.08950722962617874
1707028608.3702178,-0.6886850595474243,0.14862811565399167,-0.21749271452426913,0.6755142211914064,0.0068351607307320554,0.0002789909689575658,-0.0013800975784033017,0.9671573042869568,-9.690674781799315,0.06567107141017914,1.321125980300948e-09,1.5558576218463718e-10,4.5143882086283774e-10,1.5558569292265103e-10,3.9767981433394757e-10,-6.370810297236904e-10,4.5143882086283774e-10,-6.370809604617044e-10,1.4615955217940728e-09,6.090633096098318e-10,0.0,0.0,0.0,6.280380462878344e-10,0.0,0.0,-0.0,6.368115313355767e-10,0.009366241283714771,0.0,0.0,0.0,0.006357183679938316,0.0,0.0,-0.0,0.007645312696695326,-9.738816630806351,0.004648587575702301,0.06567107141017914
1707028608.3727252,-0.6887055635452272,0.14863167703151703,-0.21748685836791992,0.6754944324493408,0.004708535515796662,0.00024673404704326953,-0.00029918629352300056,0.9647062420845032,-9.666716575622559,0.041812554001808167,1.3210941197873182e-09,1.5554690621040642e-10,4.5147722663415855e-10,1.5554685426391678e-10,3.975923364454387e-10,-6.37019386556016e-10,4.5147719200316547e-10,-6.370192480320438e-10,1.4616620133007775e-09,6.090633096098318e-10,0.0,0.0,0.0,6.280380462878344e-10,0.0,0.0,-0.0,6.368115313355767e-10,0.009366241283714771,0.0,0.0,0.0,0.006357183679938316,0.0,0.0,-0.0,0.007645312696695326,-9.714733477256013,0.00457742438954456,0.041812554001808167
1707028608.3752327,-0.6887282729148865,0.14863121509552,-0.21748483180999756,0.6754720211029053,0.0031309774108118863,0.00022637814283225035,-0.0013726468388927879,0.9670886397361756,-9.652326583862305,0.02750876545906067,1.3211085262804377e-09,1.5556048155969203e-10,4.514952001195647e-10,1.5556044692869895e-10,3.975517835525473e-10,-6.369796994379514e-10,4.514952001195647e-10,-6.369797686999376e-10,1.4616851468041518e-09,6.090633096098318e-10,0.0,0.0,0.0,6.280380462878344e-10,0.0,0.0,-0.0,6.368115313355767e-10,0.009366241283714771,0.0,0.0,0.0,0.006357183679938316,0.0,0.0,-0.0,0.007645312696695326,-9.700649403791669,0.00837038577635929,0.02750876545906067
1707028608.3777404,-0.6887562870979309,0.14863428473472595,-0.217481791973114,0.6754437685012816,-0.0037702700282922687,0.0011740029740990923,0.00023485685865069463,0.9670886397361756,-9.647537231445312,0.022740731015801426,1.321134291739286e-09,1.5556432559992343e-10,4.515439605578151e-10,1.555643602309165e-10,3.974891360860737e-10,-6.369266447565598e-10,4.515440298198013e-10,-6.369265754945735e-10,1.4617413875369067e-09,6.090633096098318e-10,0.0,0.0,0.0,6.280380462878344e-10,0.0,0.0,-0.0,6.368115313355767e-10,0.009366241283714771,0.0,0.0,0.0,0.006357183679938316,0.0,0.0,-0.0,0.007645312696695326,-9.695883500615441,0.008843739226718328,0.022740731015801426
1707028608.3802478,-0.6887876391410828,0.1486389935016632,-0.21747533977031708,0.6754127740859985,-0.008028101407453182,5.680767475075159e-05,0.003435433427984968,0.9718533158302307,-9.657073974609377,0.02989254891872406,1.3211694768282509e-09,1.555704033392082e-10,4.5159957793269446e-10,1.5557038602371166e-10,3.9742610767867615e-10,-6.368731745032511e-10,4.515995433017013e-10,-6.368731052412649e-10,1.4618028921806087e-09,6.090633096098318e-10,0.0,0.0,0.0,6.280380462878344e-10,0.0,0.0,-0.0,6.368115313355767e-10,0.009366241283714771,0.0,0.0,0.0,0.006357183679938316,0.0,0.0,-0.0,0.007645312696695326,-9.705844465324613,0.012642527259920433,0.02989254891872406
1707028608.3827553,-0.6888190507888794,0.14864179491996765,-0.2174673229455948,0.6753827929496765,-0.007506856789503725,-0.0020397229372244776,0.005553642897599638,0.9647520780563353,-9.673921585083008,0.04659174010157585,1.3211975971946283e-09,1.555800827017728e-10,4.5164092733842655e-10,1.5558004807077972e-10,3.9737104439968607e-10,-6.368251066848622e-10,4.516409619694197e-10,-6.368251066848622e-10,1.4618487436154409e-09,6.090633096098318e-10,0.0,0.0,0.0,6.280380462878344e-10,0.0,0.0,-0.0,6.368115313355767e-10,0.009366241283714771,0.0,0.0,0.0,0.006357183679938316,0.0,0.0,-0.0,0.007645312696695326,-9.721907740307905,0.0039109321362479355,0.04659174010157585
1707028608.3852627,-0.6888505220413208,0.14863808453083038,-0.21746286749839783,0.675352931022644,-0.0069581852526126205,-0.003604152749986232,0.004469709256393731,0.9647520780563353,-9.697868347167969,0.07281680405139923,1.3212140815473323e-09,1.5558849803309012e-10,4.516756275934882e-10,1.5558846340209707e-10,3.973084315642055e-10,-6.367674114503983e-10,4.516756622244813e-10,-6.367673421884122e-10,1.4618796344612643e-09,6.090633096098318e-10,0.0,0.0,0.0,6.280380462878344e-10,0.0,0.0,-0.0,6.368115313355767e-10,0.009366241283714771,0.0,0.0,0.0,0.006357183679938316,0.0,0.0,-0.0,0.007645312696695326,-9.745737256189047,0.0015441648844526368,0.07281680405139923
1707028608.3877704,-0.6888419389724731,0.14861316978931427,-0.21748580038547516,0.6753597855567932,-0.004321434117584676,-0.0019919470222962646,0.004486050766993016,0.967134416103363,-9.724188804626465,0.09904129803180695,1.3212194839822517e-09,1.5561360550306992e-10,4.516696710626793e-10,1.5561360550306992e-10,3.9729849246919287e-10,-6.367406070617579e-10,4.516696710626793e-10,-6.367404685377855e-10,1.461834198598349e-09,6.090633096098318e-10,0.0,0.0,0.0,6.280380462878344e-10,0.0,0.0,-0.0,6.368115313355767e-10,0.009366241283714771,0.0,0.0,0.0,0.006357183679938316,0.0,0.0,-0.0,0.007645312696695326,-9.772164302836659,0.0013134683744381315,0.09904129803180695
1707028608.3952928,-0.6887568831443787,0.1485966444015503,-0.21749976277351377,0.6754456758499146,0.00789249136848122,-0.0012829564343018458,-0.00033238696017083525,0.9862847924232483,-9.78872013092041,0.115738645195961,1.3211126819996067e-09,1.5555968504685133e-10,4.5156092974442207e-10,1.5555965041585822e-10,3.9741512965387126e-10,-6.368564131026024e-10,4.5156092974442207e-10,-6.368564131026024e-10,1.4616977524856316e-09,6.090633096098318e-10,0.0,0.0,0.0,6.280380462878344e-10,0.0,0.0,-0.0,6.368115313355767e-10,0.009366241283714771,0.0,0.0,0.0,0.006357183679938316,0.0,0.0,-0.0,0.007645312696695326,-9.838272394722715,0.013992158118793174,0.115738645195961
1707028608.3978002,-0.6887286901473999,0.14858143031597135,-0.21751159429550168,0.6754739284515381,0.006873706867679269,-0.0028653869018661527,-0.0035612867783785763,0.9910495281219481,-9.791072845458984,0.10142909735441208,1.3210632289414951e-09,1.5553804067617907e-10,4.515265065373049e-10,1.5553804067617907e-10,3.9743486931992423e-10,-6.368711659056527e-10,4.5152654116829804e-10,-6.368710966436664e-10,1.4616394338932923e-09,6.090633096098318e-10,0.0,0.0,0.0,6.280380462878344e-10,0.0,0.0,-0.0,6.368115313355767e-10,0.009366241283714771,0.0,0.0,0.0,0.006357183679938316,0.0,0.0,-0.0,0.007645312696695326,-9.841084510558543,0.01850103564034744,0.10142909735441208
1707028608.4228754,-0.688854992389679,0.14858323335647583,-0.2175147384405136,0.6753437519073486,-0.0037902798873494415,-0.0014584149324402959,0.003955309794871897,0.9718990921974182,-9.712172508239746,0.09427650272846222,1.3211482826604884e-09,1.5557620403054832e-10,4.5172050936051413e-10,1.5557616939955522e-10,3.971114504755919e-10,-6.365816508035411e-10,4.517204747295211e-10,-6.365816508035411e-10,1.4619008286290264e-09,6.090633096098318e-10,0.0,0.0,0.0,6.280380462878344e-10,0.0,0.0,-0.0,6.368115313355767e-10,0.009366241283714771,0.0,0.0,0.0,0.006357183679938316,0.0,0.0,-0.0,0.007645312696695326,-9.76067775424779,0.007242441190220217,0.09427650272846222
1707028608.4253829,-0.68882954120636,0.1485839486122131,-0.21751412749290464,0.6753697395324707,-8.573923342393945e-05,-0.0014054234868510068,0.003959873319181756,0.976663827896118,-9.738471031188963,0.10857689380645752,1.3211539621433532e-09,1.5557218683535155e-10,4.517051678305817e-10,1.5557222146634462e-10,3.9715186484451104e-10,-6.366274329763872e-10,4.5170513319958864e-10,-6.366275022383732e-10,1.4618711844989534e-09,6.090633096098318e-10,0.0,0.0,0.0,6.280380462878344e-10,0.0,0.0,-0.0,6.368115313355767e-10,0.009366241283714771,0.0,0.0,0.0,0.006357183679938316,0.0,0.0,-0.0,0.007645312696695326,-9.787318436959744,0.009384645715942996,0.10857689380645752
1707028608.4278903,-0.6888013482093811,0.14858399331569672,-0.21752107143402097,0.6753962635993958,0.0025354277355878647,0.0028307062497207524,0.003998017641285479,0.9790462255477904,-9.767186164855955,0.11572146415710448,1.321137616314621e-09,1.555701782377532e-10,4.5166710836919166e-10,1.555701782377532e-10,3.9721804467227836e-10,-6.366842278050309e-10,4.5166710836919166e-10,-6.366841585430447e-10,1.46183184369082e-09,6.090633096098318e-10,0.0,0.0,0.0,6.280380462878344e-10,0.0,0.0,-0.0,6.368115313355767e-10,0.009366241283714771,0.0,0.0,0.0,0.006357183679938316,0.0,0.0,-0.0,0.007645312696695326,-9.816128441086468,0.008917331793562355,0.11572146415710448
1707028608.4303975,-0.6887752413749695,0.1485774666070938,-0.21753367781639096,0.6754202842712401,0.0020598320146394448,0.002310124561244473,-0.0013645186057464854,0.9861931204795836,-9.779095649719238,0.1228727102279663,1.3211248721091696e-09,1.5556290572920734e-10,4.5165574940346284e-10,1.5556287109821424e-10,3.972492125660464e-10,-6.367063916405991e-10,4.5165581866544904e-10,-6.367063916405991e-10,1.4618053856121103e-09,6.090633096098318e-10,0.0,0.0,0.0,6.280380462878344e-10,0.0,0.0,-0.0,6.368115313355767e-10,0.009366241283714771,0.0,0.0,0.0,0.006357183679938316,0.0,0.0,-0.0,0.007645312696695326,-9.828685975775102,0.014852166198882522,0.1228727102279663
1707028608.4329052,-0.6887468695640564,0.14856423437595367,-0.21754635870456693,0.6754480004310608,0.006345833475146712,-0.001295616982838124,-0.004600335230860413,0.9861702919006349,-9.786268234252928,0.12047922611236572,1.321093981263346e-09,1.55547633461261e-10,4.51636113630389e-10,1.555475815147714e-10,3.97266493431591e-10,-6.367171965104389e-10,4.5163607899939597e-10,-6.367171965104389e-10,1.461760365321112e-09,6.090633096098318e-10,0.0,0.0,0.0,6.280380462878344e-10,0.0,0.0,-0.0,6.368115313355767e-10,0.009366241283714771,0.0,0.0,0.0,0.006357183679938316,0.0,0.0,-0.0,0.007645312696695326,-9.83582118622715,0.014120550287407108,0.12047922611236572
1707028608.435413,-0.6887189149856567,0.1485527902841568,-0.2175590395927429,0.675475001335144,0.005281159898697794,-0.00026118790562902015,-0.004592917910901607,0.9814056158065795,-9.776732444763184,0.1109425202012062,1.3210564412668522e-09,1.5552342639710123e-10,4.5161848645491367e-10,1.5552342639710123e-10,3.9727986099491815e-10,-6.367300099778767e-10,4.5161848645491367e-10,-6.36730079239863e-10,1.4617225482766734e-09,6.090633096098318e-10,0.0,0.0,0.0,6.280380462878344e-10,0.0,0.0,-0.0,6.368115313355767e-10,0.009366241283714771,0.0,0.0,0.0,0.006357183679938316,0.0,0.0,-0.0,0.007645312696695326,-9.825861170522995,0.010321667998240414,0.1109425202012062
1707028608.4379203,-0.6886892914772034,0.1485397070646286,-0.21756625175476077,0.6755056977272034,0.00846121203565368,-0.00441875393275246,-0.0024808813055654166,0.9718762040138244,-9.752870559692385,0.09664062410593034,1.3210051873971005e-09,1.5549953101187912e-10,4.5157918027777286e-10,1.5549953101187912e-10,3.9730351396318877e-10,-6.367517582415283e-10,4.5157914564677983e-10,-6.36751619717556e-10,1.4616618747768052e-09,6.090633096098318e-10,0.0,0.0,0.0,6.280380462878344e-10,0.0,0.0,-0.0,6.368115313355767e-10,0.009366241283714771,0.0,0.0,0.0,0.006357183679938316,0.0,0.0,-0.0,0.007645312696695326,-9.801174281042442,0.0031972918134173245,0.09664062410593034
1707028608.4404275,-0.6886579990386963,0.1485333889722824,-0.2175746709108353,0.6755362749099731,0.007893838553522825,0.0002943837934109979,-0.00137078353633862,0.9551997780799864,-9.7266788482666,0.0704142153263092,1.3209594744862406e-09,1.554784926835857e-10,4.5153464482067774e-10,1.5547847536808916e-10,3.973475299553878e-10,-6.367943543630112e-10,4.515346101896847e-10,-6.367944236249972e-10,1.4616099282871918e-09,6.090633096098318e-10,0.0,0.0,0.0,6.280380462878344e-10,0.0,0.0,-0.0,6.368115313355767e-10,0.009366241283714771,0.0,0.0,0.0,0.006357183679938316,0.0,0.0,-0.0,0.007645312696695326,-9.773462600448724,-0.01080883855903425,0.0704142153263092
1707028608.4429352,-0.6886271238327025,0.1485336422920227,-0.21757511794567108,0.6755675673484801,0.007385886334700109,-0.0007593501463588439,-0.00299141996362342,0.9385461807250975,-9.695708274841309,0.04419556260108948,1.320925813160971e-09,1.554570734143685e-10,4.514963083113432e-10,1.5545710804536156e-10,3.9740345900920477e-10,-6.368490020700843e-10,4.5149623904935694e-10,-6.368490713320705e-10,1.461563799804415e-09,6.090633096098318e-10,0.0,0.0,0.0,6.280380462878344e-10,0.0,0.0,-0.0,6.368115313355767e-10,0.009366241283714771,0.0,0.0,0.0,0.006357183679938316,0.0,0.0,-0.0,0.007645312696695326,-9.740997711986063,-0.024319935489226063,0.04419556260108948
1707028608.445443,-0.6886265277862549,0.14856503903865814,-0.21753580868244168,0.6755739450454712,0.004176823166044191,-0.00449121636338228,0.0028674206831451805,0.924252152442932,-9.667099952697754,0.02512499876320362,1.3208964460788435e-09,1.554161395805532e-10,4.5146333960593524e-10,1.554161395805532e-10,3.9746340525821855e-10,-6.369308697377148e-10,4.5146333960593524e-10,-6.36930938999701e-10,1.461568371095501e-09,6.090633096098318e-10,0.0,0.0,0.0,6.280380462878344e-10,0.0,0.0,-0.0,6.368115313355767e-10,0.009366241283714771,0.0,0.0,0.0,0.006357183679938316,0.0,0.0,-0.0,0.007645312696695326,-9.711116715868576,-0.035716488100761,0.02512499876320362
1707028608.4479504,-0.688646137714386,0.14858509600162506,-0.21751882135868073,0.6755549311637878,0.00042864869542671926,0.0028027799880609807,0.0029239049270180168,0.9290168285369872,-9.645504951477049,0.00605436135083437,1.320918748438384e-09,1.554495931198642e-10,4.514235139638984e-10,1.554496104353607e-10,3.9754066700377e-10,-6.369901579978602e-10,4.5142358322588455e-10,-6.36990019473888e-10,1.4615545186982709e-09,6.090633096098318e-10,0.0,0.0,0.0,6.280380462878344e-10,0.0,0.0,-0.0,6.368115313355767e-10,0.009366241283714771,0.0,0.0,0.0,0.006357183679938316,0.0,0.0,-0.0,0.007645312696695326,-9.690098360927246,-0.02884080838426073,0.00605436135083437
1707028608.4705179,-0.6888631582260132,0.14868855476379395,-0.21742233633995056,0.67534202337265,0.005791441863389761,0.0028948387595595275,-0.00457411297622624,0.9885984063148497,-9.78148078918457,0.11572353541851044,1.3212656124650284e-09,1.556439422530041e-10,4.5160782010904635e-10,1.5564397688399715e-10,3.974725824713836e-10,-6.369104374518004e-10,4.516077508470602e-10,-6.369105067137864e-10,1.4618547001462498e-09,6.090633096098318e-10,0.0,0.0,0.0,6.280380462878344e-10,0.0,0.0,-0.0,6.368115313355767e-10,0.009366241283714771,0.0,0.0,0.0,0.006357183679938316,0.0,0.0,-0.0,0.007645312696695326,-9.831297162635863,0.017009941302227105,0.11572353541851044
1707028608.480548,-0.688741147518158,0.14866264164447784,-0.21744725108146667,0.6754641532897949,0.005241460072012246,-0.00132185848297289,0.00020411134246424212,0.9505266547203065,-9.681266784667969,0.08476343005895615,1.321149806424184e-09,1.556141942299522e-10,4.5143023237655504e-10,1.556142115454487e-10,3.9768767556937564e-10,-6.370936354051698e-10,4.5143026700754807e-10,-6.370937046671559e-10,1.4616156077700564e-09,6.090633096098318e-10,0.0,0.0,0.0,6.280380462878344e-10,0.0,0.0,-0.0,6.368115313355767e-10,0.009366241283714771,0.0,0.0,0.0,0.006357183679938316,0.0,0.0,-0.0,0.007645312696695326,-9.72781101372599,-0.010970801263577634,0.08476343005895615
1707028608.483055,-0.6887136101722717,0.148665189743042,-0.2174483835697174,0.6754912137985228,0.0015049640767427833,0.0007203369809293003,0.0023840301443445386,0.9527716636657715,-9.666810989379881,0.07042358070611954,1.3211266729208095e-09,1.5559968384385356e-10,4.513950472875903e-10,1.5559968384385356e-10,3.9775177753755845e-10,-6.371535470231905e-10,4.513950472875903e-10,-6.371534777612045e-10,1.461576821057812e-09,6.090633096098318e-10,0.0,0.0,0.0,6.280380462878344e-10,0.0,0.0,-0.0,6.368115313355767e-10,0.009366241283714771,0.0,0.0,0.0,0.006357183679938316,0.0,0.0,-0.0,0.007645312696695326,-9.713647880165947,-0.007308052249970998,0.07042358070611954
1707028608.4855628,-0.6887394785881041,0.14866264164447784,-0.21744704246521,0.6754658818244934,-6.324460387712553e-05,-0.0008743732213301325,0.0012974870473249332,0.9575363993644713,-9.664374351501465,0.04896111786365509,1.3211043705612687e-09,1.5557911303396667e-10,4.5142926270874883e-10,1.555790784029736e-10,3.976734768622147e-10,-6.370859473247072e-10,4.5142926270874883e-10,-6.370858780627211e-10,1.4616266896878404e-09,6.090633096098318e-10,0.0,0.0,0.0,6.280380462878344e-10,0.0,0.0,-0.0,6.368115313355767e-10,0.009366241283714771,0.0,0.0,0.0,0.006357183679938316,0.0,0.0,-0.0,0.007645312696695326,-9.711694092825546,-0.0023258212780579157,0.04896111786365509
1707028608.4880702,-0.688766360282898,0.14865773916244507,-0.21743895113468167,0.675442099571228,-0.0005764498162557632,-0.0061333230971376,0.0028604871014445577,0.9646833539009094,-9.664310455322264,0.03703764081001282,1.321101323033878e-09,1.5557810873516748e-10,4.5144820586196117e-10,1.5557807410417444e-10,3.9761030993084493e-10,-6.370319229755093e-10,4.514482404929544e-10,-6.370318537135231e-10,1.4616437281364334e-09,6.090633096098318e-10,0.0,0.0,0.0,6.280380462878344e-10,0.0,0.0,-0.0,6.368115313355767e-10,0.009366241283714771,0.0,0.0,0.0,0.006357183679938316,0.0,0.0,-0.0,0.007645312696695326,-9.712336875464606,0.0047924560659736715,0.03703764081001282
1707028608.4905777,-0.688793420791626,0.14865852892398834,-0.21743176877498624,0.6754167079925537,-0.002196028911342368,-0.002484895032736674,0.003960560175493509,0.9694480299949646,-9.673846244812013,0.02988014370203018,1.3211031238455184e-09,1.5557942471290434e-10,4.514638590708313e-10,1.5557942471290434e-10,3.975638005071445e-10,-6.369957682187385e-10,4.514638244398384e-10,-6.369958374807247e-10,1.4616685239274755e-09,6.090633096098318e-10,0.0,0.0,0.0,6.280380462878344e-10,0.0,0.0,-0.0,6.368115313355767e-10,0.009366241283714771,0.0,0.0,0.0,0.006357183679938316,0.0,0.0,-0.0,0.007645312696695326,-9.722296891168769,0.008591338355139588,0.02988014370203018
1707028608.5031154,-0.6888681054115297,0.14859436452388763,-0.21749596297740936,0.6753339171409607,0.0036761753949200366,-0.0008136451495204867,-0.002464235247922942,0.9933630824089049,-9.762280464172365,0.07995782047510147,1.3211750177871427e-09,1.5561256657327764e-10,4.516886488468847e-10,1.5561253194228454e-10,3.9717416720405167e-10,-6.36626948142484e-10,4.516886488468847e-10,-6.36626948142484e-10,1.4618362764579334e-09,6.090633096098318e-10,0.0,0.0,0.0,6.280380462878344e-10,0.0,0.0,-0.0,6.368115313355767e-10,0.009366241283714771,0.0,0.0,0.0,0.006357183679938316,0.0,0.0,-0.0,0.007645312696695326,-9.812661759282653,0.02364894429354747,0.07995782047510147
1707028608.5106375,-0.6888117790222168,0.14859090745449066,-0.21751347184181213,0.6753864884376526,0.007344928788543285,0.0018585607489031183,-0.000294859241799837,0.9671573042869568,-9.738568305969238,0.10142699629068375,1.3211338761673691e-09,1.5560896494999782e-10,4.516156467134815e-10,1.5560899958099084e-10,3.9727151492558703e-10,-6.3670853876217e-10,4.516156467134815e-10,-6.367084002381977e-10,1.461766737423838e-09,6.090633096098318e-10,0.0,0.0,0.0,6.280380462878344e-10,0.0,0.0,-0.0,6.368115313355767e-10,0.009366241283714771,0.0,0.0,0.0,0.006357183679938316,0.0,0.0,-0.0,0.007645312696695326,-9.786475662568636,-8.494692788851843e-05,0.10142699629068375
1707028608.5131452,-0.6887838244438171,0.14858204126358032,-0.2175254225730896,0.6754131317138672,0.004715520592215091,0.0007738735423192083,-0.0013663305436200127,0.9575592279434205,-9.72664737701416,0.09187249094247818,1.3211018771297673e-09,1.5557700054338908e-10,4.5161883276484437e-10,1.55576965912396e-10,3.9726029448383046e-10,-6.367072920464193e-10,4.516189020268305e-10,-6.367072227844331e-10,1.4617588415574166e-09,6.090633096098318e-10,0.0,0.0,0.0,6.280380462878344e-10,0.0,0.0,-0.0,6.368115313355767e-10,0.009366241283714771,0.0,0.0,0.0,0.006357183679938316,0.0,0.0,-0.0,0.007645312696695326,-9.773664478428806,-0.008457830396788157,0.09187249094247818
1707028608.5256827,-0.6888327598571777,0.1486247032880783,-0.21748791635036469,0.6753659248352051,-0.006447152193248809,0.0011285829425105305,0.0034300904609010367,0.9647977948188781,-9.688312530517578,0.03944389894604682,1.3211642129173032e-09,1.5554432620142232e-10,4.5173422323377206e-10,1.5554432620142232e-10,3.971772147314423e-10,-6.366709987656762e-10,4.517342578647651e-10,-6.366709987656762e-10,1.4619250703241792e-09,6.090633096098318e-10,0.0,0.0,0.0,6.280380462878344e-10,0.0,0.0,-0.0,6.368115313355767e-10,0.009366241283714771,0.0,0.0,0.0,0.006357183679938316,0.0,0.0,-0.0,0.007645312696695326,-9.736232744352174,0.0025341025698584208,0.03944389894604682
1707028608.5281904,-0.688850462436676,0.1485915184020996,-0.217514768242836,0.6753465533256531,-0.0063969640888879905,-0.0030638082730685178,0.0007164441233040058,0.9647977948188781,-9.700285911560057,0.048979099839925766,1.3211698924001676e-09,1.5559822934214438e-10,4.517220331242096e-10,1.555981947111513e-10,3.971628428693159e-10,-6.366079703582785e-10,4.517220331242096e-10,-6.366079703582785e-10,1.461864812396228e-09,6.090633096098318e-10,0.0,0.0,0.0,6.280380462878344e-10,0.0,0.0,-0.0,6.368115313355767e-10,0.009366241283714771,0.0,0.0,0.0,0.006357183679938316,0.0,0.0,-0.0,0.007645312696695326,-9.748147502292742,0.0013507189439608824,0.048979099839925766
1707028608.5332053,-0.6888623237609863,0.14858734607696533,-0.21751344203948972,0.6753357648849487,-0.004842286023292274,0.001680913985332221,0.0012974038235385793,0.9838337302207946,-9.728839874267578,0.07281405478715897,1.321134291739286e-09,1.555102666197325e-10,4.5182502569761616e-10,1.5551023198873943e-10,3.970008390837086e-10,-6.365079560502765e-10,4.518250949596023e-10,-6.365079560502765e-10,1.4619693979953157e-09,6.090633096098318e-10,0.0,0.0,0.0,6.280380462878344e-10,0.0,0.0,-0.0,6.368115313355767e-10,0.009366241283714771,0.0,0.0,0.0,0.006357183679938316,0.0,0.0,-0.0,0.007645312696695326,-9.778443069340637,0.017471334322256227,0.07281405478715897
1707028608.5357127,-0.6888430714607239,0.14856834709644315,-0.21753957867622373,0.6753512024879456,0.0014990053836769985,0.003346110898537144,0.0013183088584477233,0.9885984063148497,-9.740771293640137,0.08234989643096925,1.3211672604446938e-09,1.5557322576514383e-10,4.517858234134546e-10,1.5557319113415076e-10,3.970683348892128e-10,-6.365319899594709e-10,4.517858234134546e-10,-6.365319899594709e-10,1.4618927942386327e-09,6.090633096098318e-10,0.0,0.0,0.0,6.280380462878344e-10,0.0,0.0,-0.0,6.368115313355767e-10,0.009366241283714771,0.0,0.0,0.0,0.006357183679938316,0.0,0.0,-0.0,0.007645312696695326,-9.790786985637924,0.02103344563027909,0.08234989643096925
1707028608.5382204,-0.6888220906257628,0.14854557812213895,-0.21756353974342343,0.6753697991371155,0.004687975599526555,0.0002416460503329225,0.0018318088528911025,0.9885984063148497,-9.752744674682615,0.08950020372867584,1.321134153215314e-09,1.5555407482597307e-10,4.517984983569202e-10,1.5555404019498e-10,3.9701586893470335e-10,-6.364830909972482e-10,4.517985329879133e-10,-6.36483021735262e-10,1.4618866991838515e-09,6.090633096098318e-10,0.0,0.0,0.0,6.280380462878344e-10,0.0,0.0,-0.0,6.368115313355767e-10,0.009366241283714771,0.0,0.0,0.0,0.006357183679938316,0.0,0.0,-0.0,0.007645312696695326,-9.802701743578492,0.019850062004381663,0.08950020372867584
1707028608.5432353,-0.6887666583061217,0.14854708313941956,-0.21756662428379056,0.6754249930381775,0.006779290002209247,0.0028936223919070964,0.002931728483083964,0.9742813706398009,-9.748071670532225,0.09426379948854446,1.3210704321880548e-09,1.5549191219340247e-10,4.5176546038952615e-10,1.554918775624094e-10,3.9706095848768767e-10,-6.365515218395655e-10,4.5176546038952615e-10,-6.365514525775794e-10,1.461855669814056e-09,6.090633096098318e-10,0.0,0.0,0.0,6.280380462878344e-10,0.0,0.0,-0.0,6.368115313355767e-10,0.009366241283714771,0.0,0.0,0.0,0.006357183679938316,0.0,0.0,-0.0,0.007645312696695326,-9.796636601356859,0.006064978466674198,0.09426379948854446
1707028608.5457428,-0.6887782812118529,0.1485239565372467,-0.21759289503097531,0.6754098534584044,0.008373935250904173,0.003443472325598106,0.0018665399594569804,0.9742813706398009,-9.738492965698242,0.08949750661849974,1.3210467445887911e-09,1.555160846265692e-10,4.5175915754878646e-10,1.555160846265692e-10,3.970103972377975e-10,-6.364781733962315e-10,4.5175915754878646e-10,-6.364781041342455e-10,1.4618499903311916e-09,6.090633096098318e-10,0.0,0.0,0.0,6.280380462878344e-10,0.0,0.0,-0.0,6.368115313355767e-10,0.009366241283714771,0.0,0.0,0.0,0.006357183679938316,0.0,0.0,-0.0,0.007645312696695326,-9.787104795004405,0.007011685367392162,0.08949750661849974
1707028608.553265,-0.6888048052787781,0.1485241651535034,-0.21757672727108,0.675387978553772,0.002067560383499749,-0.002417774528893456,0.0007352417108794824,0.9695395827293397,-9.693047523498535,0.034667015075683594,1.3210148840751615e-09,1.5547657066347e-10,4.5179233404015286e-10,1.5547655334797346e-10,3.9691000198887144e-10,-6.364111970556234e-10,4.5179233404015286e-10,-6.364111277936372e-10,1.4618926557146604e-09,6.090633096098318e-10,0.0,0.0,0.0,6.280380462878344e-10,0.0,0.0,-0.0,6.368115313355767e-10,0.009366241283714771,0.0,0.0,0.0,0.006357183679938316,0.0,0.0,-0.0,0.007645312696695326,-9.741413206676814,0.0067846932606334676,0.034667015075683594
1707028608.5658028,-0.6889339089393616,0.14855581521987915,-0.21753697097301483,0.6752621531486511,-0.002192005041272149,0.0001431070879682796,0.0018193277556441505,0.9624155163764953,-9.697912216186525,0.04897965118288994,1.3211453736570703e-09,1.55540066589274e-10,4.5192372402788134e-10,1.5554004927377748e-10,3.9674689001148566e-10,-6.362689329360692e-10,4.5192372402788134e-10,-6.362689329360692e-10,1.4620749532622103e-09,6.090633096098318e-10,0.0,0.0,0.0,6.280380462878344e-10,0.0,0.0,-0.0,6.368115313355767e-10,0.009366241283714771,0.0,0.0,0.0,0.006357183679938316,0.0,0.0,-0.0,0.007645312696695326,-9.745549977417273,-0.0007852924850068055,0.04897965118288994
1707028608.5708177,-0.6889816522598267,0.1485566645860672,-0.2175293266773224,0.6752156615257263,0.0036236143723507976,-0.0013515072169358582,0.003420673949549407,0.986238956451416,-9.726435661315918,0.08236079663038252,1.3211813898898687e-09,1.5558034243422086e-10,4.5194824277097884e-10,1.5558032511872432e-10,3.9668032924279446e-10,-6.362010561896409e-10,4.519482081399857e-10,-6.36200986927655e-10,1.4621173415977348e-09,6.090633096098318e-10,0.0,0.0,0.0,6.280380462878344e-10,0.0,0.0,-0.0,6.368115313355767e-10,0.009366241283714771,0.0,0.0,0.0,0.006357183679938316,0.0,0.0,-0.0,0.007645312696695326,-9.776288347134171,0.02010240356314663,0.08236079663038252
1707028608.5733252,-0.6889898180961609,0.14852501451969147,-0.2175612151622772,0.6752039790153505,0.004157215121830509,0.0012844439294457583,0.0012921091002433003,0.983902394771576,-9.736058235168455,0.09190856665372849,1.3211758489309765e-09,1.5560699098339248e-10,4.519627185260845e-10,1.5560699098339248e-10,3.9660168225751997e-10,-6.361092840579908e-10,4.519627185260845e-10,-6.361092147960048e-10,1.4621081990155627e-09,6.090633096098318e-10,0.0,0.0,0.0,6.280380462878344e-10,0.0,0.0,-0.0,6.368115313355767e-10,0.009366241283714771,0.0,0.0,0.0,0.006357183679938316,0.0,0.0,-0.0,0.007645312696695326,-9.78563287471485,0.016826239292969558,0.09190856665372849
1707028608.5758328,-0.6889607310295105,0.14853203296661377,-0.21755944192409515,0.6752327084541321,0.003634980140823439,0.0018040132785833404,0.0002243139328563372,0.9767553806304932,-9.740911483764648,0.0919058844447136,1.3211737710713922e-09,1.5557561530366607e-10,4.519751164216055e-10,1.5557554604167987e-10,3.9661013221983037e-10,-6.36141352357579e-10,4.519751164216055e-10,-6.361411445716204e-10,1.4621213587929313e-09,6.090633096098318e-10,0.0,0.0,0.0,6.280380462878344e-10,0.0,0.0,-0.0,6.368115313355767e-10,0.009366241283714771,0.0,0.0,0.0,0.006357183679938316,0.0,0.0,-0.0,0.007645312696695326,-9.78975598936102,0.009234549185765606,0.0919058844447136
1707028608.5783403,-0.6889342665672302,0.1485193967819214,-0.21757251024246213,0.6752583384513855,0.004199986946529851,-0.0008076309956033267,-0.0019398464613324627,0.9696083068847656,-9.743370056152344,0.08474940806627274,1.3211482826604884e-09,1.555766888644514e-10,4.519379227350424e-10,1.555766888644514e-10,3.966573342633924e-10,-6.361696112479284e-10,4.519379919970285e-10,-6.361696112479284e-10,1.4620594385773124e-09,6.090633096098318e-10,0.0,0.0,0.0,6.280380462878344e-10,0.0,0.0,-0.0,6.368115313355767e-10,0.009366241283714771,0.0,0.0,0.0,0.006357183679938316,0.0,0.0,-0.0,0.007645312696695326,-9.791496146528077,0.0018794764909281225,0.08474940806627274
1707028608.5808475,-0.6889510750770569,0.14853093028068542,-0.2175580710172653,0.6752432584762573,0.005779480004547358,-0.0002613129363643006,-0.0013977783417770567,0.9696083068847656,-9.740975379943848,0.0799805074930191,1.3211186385304159e-09,1.5553523556573995e-10,4.5196368819389053e-10,1.5553527019673308e-10,3.965990849330393e-10,-6.361391359740219e-10,4.5196368819389053e-10,-6.361392052360081e-10,1.4621173415977348e-09,6.090633096098318e-10,0.0,0.0,0.0,6.280380462878344e-10,0.0,0.0,-0.0,6.368115313355767e-10,0.009366241283714771,0.0,0.0,0.0,0.006357183679938316,0.0,0.0,-0.0,0.007645312696695326,-9.789113194939963,0.0021161532161075858,0.0799805074930191
1707028608.5833552,-0.6889283061027527,0.14850971102714539,-0.2175861150026321,0.6752620935440063,0.004709800517349243,0.0033998997320294384,-0.002424042580377579,0.976663827896118,-9.73368167877197,0.07280536741018294,1.3211338761673691e-09,1.5558378821803187e-10,4.519236893968883e-10,1.5558377090253536e-10,3.966541135810363e-10,-6.361574211383658e-10,4.519236547658952e-10,-6.36157490400352e-10,1.4620392140773563e-09,6.090633096098318e-10,0.0,0.0,0.0,6.280380462878344e-10,0.0,0.0,-0.0,6.368115313355767e-10,0.009366241283714771,0.0,0.0,0.0,0.006357183679938316,0.0,0.0,-0.0,0.007645312696695326,-9.782552533783514,0.009857999166302145,0.07280536741018294
1707028608.5858629,-0.6889492869377136,0.14852461218833923,-0.21757134795188904,0.6752421855926514,0.00046830356176206096,0.0012354894876804724,-0.0003036907484501228,0.9814285039901731,-9.719271659851074,0.07042631506919861,1.3211208549139725e-09,1.5552834399811796e-10,4.519967954232708e-10,1.5552830936712486e-10,3.965529564502627e-10,-6.360981328782205e-10,4.519967954232708e-10,-6.360981328782205e-10,1.4621482324435578e-09,6.090633096098318e-10,0.0,0.0,0.0,6.280380462878344e-10,0.0,0.0,-0.0,6.368115313355767e-10,0.009366241283714771,0.0,0.0,0.0,0.006357183679938316,0.0,0.0,-0.0,0.007645312696695326,-9.768683982611547,0.01602355445129955,0.07042631506919861
1707028608.5883703,-0.6889333128929137,0.1485004872083664,-0.21759638190269473,0.6752557754516602,-0.0005605835914988592,-0.00034929579041686473,-0.002461085747758105,0.9742813706398009,-9.704967498779297,0.06566080451011658,1.3211387245063997e-09,1.555726716692546e-10,4.519719996322287e-10,1.555726024072685e-10,3.965897345649089e-10,-6.360986869741098e-10,4.519719996322287e-10,-6.360985484501375e-10,1.4620728754026256e-09,6.090633096098318e-10,0.0,0.0,0.0,6.280380462878344e-10,0.0,0.0,-0.0,6.368115313355767e-10,0.009366241283714771,0.0,0.0,0.0,0.006357183679938316,0.0,0.0,-0.0,0.007645312696695326,-9.753743472770807,0.010325159519905536,0.06566080451011658
1707028608.5908775,-0.6889487504959105,0.1485178917646408,-0.21757403016090396,0.6752433180809021,0.0026341888827055696,-0.0018758740272452536,-0.003541760397505254,0.967134416103363,-9.69066333770752,0.06328017264604568,1.3211155910030252e-09,1.555121886398482e-10,4.520213834283544e-10,1.5551220595534474e-10,3.965174596823602e-10,-6.360689043200648e-10,4.520213834283544e-10,-6.36068973582051e-10,1.4621503103031424e-09,6.090633096098318e-10,0.0,0.0,0.0,6.280380462878344e-10,0.0,0.0,-0.0,6.368115313355767e-10,0.009366241283714771,0.0,0.0,0.0,0.006357183679938316,0.0,0.0,-0.0,0.007645312696695326,-9.738802980603062,0.004626942526951505,0.06328017264604568
1707028608.5933852,-0.688929557800293,0.1484951674938202,-0.21759158372879028,0.6752622723579407,0.0010285715530586057,-0.004004914812579572,-0.00035064866458449145,0.9600102305412291,-9.681159973144531,0.06090382859110832,1.3211130975715238e-09,1.5555383240902157e-10,4.5196161033430607e-10,1.5555376314703536e-10,3.96586548513546e-10,-6.360993103319853e-10,4.5196161033430607e-10,-6.360993103319853e-10,1.4620412919369406e-09,6.090633096098318e-10,0.0,0.0,0.0,6.280380462878344e-10,0.0,0.0,-0.0,6.368115313355767e-10,0.009366241283714771,0.0,0.0,0.0,0.006357183679938316,0.0,0.0,-0.0,0.007645312696695326,-9.72864203003284,-0.0015231014932378661,0.06090382859110832
1707028608.6159527,-0.6889352202415465,0.1485247164964676,-0.2175704687833786,0.6752568483352661,0.004716346068145991,-0.000277252079462139,-0.0008513130154473334,0.9695395827293397,-9.75051975250244,0.07995899766683577,1.321146204800904e-09,1.555418500854174e-10,4.519914622503372e-10,1.5554188471641047e-10,3.966008511136862e-10,-6.361341491110191e-10,4.519914622503372e-10,-6.361342876349913e-10,1.462098779385446e-09,6.090633096098318e-10,0.0,0.0,0.0,6.280380462878344e-10,0.0,0.0,-0.0,6.368115313355767e-10,0.009366241283714771,0.0,0.0,0.0,0.006357183679938316,0.0,0.0,-0.0,0.007645312696695326,-9.798604044791551,0.0011044518563249062,0.07995899766683577
1707028608.6284902,-0.6889620423316956,0.14852501451969147,-0.2175646424293518,0.6752312779426575,0.0009713990224651882,-0.00033966231205346625,0.0034301427358418408,0.9576279520988464,-9.695549011230467,0.02750990353524685,1.3211117123318006e-09,1.555165348294792e-10,4.5201466501569774e-10,1.555165348294792e-10,3.965192258630072e-10,-6.360704973457464e-10,4.520146303847047e-10,-6.36070358821774e-10,1.4621462931079456e-09,6.090633096098318e-10,0.0,0.0,0.0,6.280380462878344e-10,0.0,0.0,-0.0,6.368115313355767e-10,0.009366241283714771,0.0,0.0,0.0,0.006357183679938316,0.0,0.0,-0.0,0.007645312696695326,-9.742725166274164,-0.005315849998461686,0.02750990353524685
1707028608.630998,-0.688984751701355,0.14853844046592712,-0.21755115687847135,0.6752094626426697,-0.0006205606336552427,0.0012131588553185163,0.002905515591125757,0.9576279520988464,-9.690759658813475,0.02274187095463276,1.3211432957974856e-09,1.5554425693943614e-10,4.52009747414681e-10,1.5554425693943614e-10,3.965419437944647e-10,-6.360853886727688e-10,4.5200978204567403e-10,-6.36085457934755e-10,1.4621579291216191e-09,6.090633096098318e-10,0.0,0.0,0.0,6.280380462878344e-10,0.0,0.0,-0.0,6.368115313355767e-10,0.009366241283714771,0.0,0.0,0.0,0.006357183679938316,0.0,0.0,-0.0,0.007645312696695326,-9.737959263097935,-0.004842496548102648,0.02274187095463276
1707028608.633505,-0.6890089511871338,0.14854924380779266,-0.2175428867340088,0.6751850843429564,-0.0011440976768072547,0.002783348794393301,0.0013066817152710632,0.9624155163764953,-9.690728187561037,0.027518287301063538,1.321181943985758e-09,1.5556815232465826e-10,4.5202990265265103e-10,1.5556813500916172e-10,3.965337708800988e-10,-6.360745145409431e-10,4.5202990265265103e-10,-6.360745838029293e-10,1.4621924215907222e-09,6.090633096098318e-10,0.0,0.0,0.0,6.280380462878344e-10,0.0,0.0,-0.0,6.368115313355767e-10,0.009366241283714771,0.0,0.0,0.0,0.006357183679938316,0.0,0.0,-0.0,0.007645312696695326,-9.73840112265293,-7.526230946819368e-05,0.027518287301063538
1707028608.6360128,-0.689031720161438,0.1485596001148224,-0.21753685176372528,0.6751615405082704,0.00043227835782766894,0.0038544514083380704,0.00185311154145442,0.9695625305175779,-9.695453643798828,0.044211700558662415,1.3212230856055317e-09,1.5559275764523847e-10,4.520556681114992e-10,1.5559277496073499e-10,3.9651676706249876e-10,-6.360567142105023e-10,4.520557373734853e-10,-6.360567142105023e-10,1.462235918118025e-09,6.090633096098318e-10,0.0,0.0,0.0,6.280380462878344e-10,0.0,0.0,-0.0,6.368115313355767e-10,0.009366241283714771,0.0,0.0,0.0,0.006357183679938316,0.0,0.0,-0.0,0.007645312696695326,-9.743809814359214,0.006569720897017461,0.044211700558662415
1707028608.6385202,-0.6890565156936646,0.1485658437013626,-0.21753209829330444,0.675136387348175,-0.001130879398865238,0.0022609184975626324,0.00023081736786588844,0.9695625305175779,-9.709821701049805,0.06328556686639786,1.3212609026499702e-09,1.556120471083815e-10,4.5209137266536007e-10,1.556120471083815e-10,3.964822399624025e-10,-6.360222910033852e-10,4.520914072963531e-10,-6.360222910033852e-10,1.4622805228371067e-09,6.090633096098318e-10,0.0,0.0,0.0,6.280380462878344e-10,0.0,0.0,-0.0,6.368115313355767e-10,0.009366241283714771,0.0,0.0,0.0,0.006357183679938316,0.0,0.0,-0.0,0.007645312696695326,-9.7581075238879,0.005149660545940238,0.06328556686639786
1707028608.6410277,-0.6890338063240051,0.14856554567813873,-0.2175361514091492,0.6751583218574524,-0.003263663694139496,0.0006503966861560904,0.002893889488246426,0.9671801924705504,-9.729000091552734,0.0847422778606415,1.321293455783461e-09,1.556380376686847e-10,4.520706287005078e-10,1.5563798572219507e-10,3.9655517283381957e-10,-6.360785317361399e-10,4.520706287005078e-10,-6.360784624741538e-10,1.4622352254981636e-09,6.090633096098318e-10,0.0,0.0,0.0,6.280380462878344e-10,0.0,0.0,-0.0,6.368115313355767e-10,0.009366241283714771,0.0,0.0,0.0,0.006357183679938316,0.0,0.0,-0.0,0.007645312696695326,-9.776956557414454,0.0008834992775439421,0.0847422778606415
1707028608.6435351,-0.6890097260475159,0.1485683023929596,-0.2175328880548477,0.6751832962036133,-0.001115570513402574,-0.0019392091491810236,0.001283457077391632,0.9551768898963928,-9.748220443725586,0.09901901334524153,1.321278218146508e-09,1.5562049707069196e-10,4.5204846486493944e-10,1.5562042780870576e-10,3.966091279210312e-10,-6.361307552736976e-10,4.5204846486493944e-10,-6.361306860117116e-10,1.4622017026968664e-09,6.090633096098318e-10,0.0,0.0,0.0,6.280380462878344e-10,0.0,0.0,-0.0,6.368115313355767e-10,0.009366241283714771,0.0,0.0,0.0,0.006357183679938316,0.0,0.0,-0.0,0.007645312696695326,-9.794896463543477,-0.01296066839036436,0.09901901334524153
1707028608.6460428,-0.6889830231666565,0.14856894314289093,-0.2175331264734268,0.6752103567123413,0.0015242967022385003,-0.0008517886263826303,0.0012954377916231303,0.9504122138023376,-9.760236740112305,0.11093846708536148,1.321256331358884e-09,1.5561234147182268e-10,4.520048990756505e-10,1.5561234147182268e-10,3.9668264951933055e-10,-6.361950303968459e-10,4.520048990756505e-10,-6.361948918728736e-10,1.462147262775752e-09,6.090633096098318e-10,0.0,0.0,0.0,6.280380462878344e-10,0.0,0.0,-0.0,6.368115313355767e-10,0.009366241283714771,0.0,0.0,0.0,0.006357183679938316,0.0,0.0,-0.0,0.007645312696695326,-9.806383012132345,-0.018889641206146335,0.11093846708536148
1707028608.6585803,-0.6888414621353148,0.14857080578804016,-0.21754528582096097,0.6753504276275635,0.004200023877085045,-0.0050114170429616575,0.000716046599686999,0.9480985403060912,-9.736343383789062,0.0871160179376602,1.321160888341968e-09,1.5555855953957636e-10,4.518415793123063e-10,1.555585422240798e-10,3.969867789005199e-10,-6.364644595229735e-10,4.5184171783627856e-10,-6.364643902609874e-10,1.4619387841974372e-09,6.090633096098318e-10,0.0,0.0,0.0,6.280380462878344e-10,0.0,0.0,-0.0,6.368115313355767e-10,0.009366241283714771,0.0,0.0,0.0,0.006357183679938316,0.0,0.0,-0.0,0.007645312696695326,-9.78237796967269,-0.01883049776313217,0.0871160179376602
1707028608.6610875,-0.6888139247894287,0.14857375621795654,-0.21754121780395508,0.67537921667099,0.0026037651272321793,-0.001883064822460577,-0.00033125063039418683,0.9504808783531189,-9.712375640869139,0.0608912780880928,1.321125841776976e-09,1.5554084578661824e-10,4.5178748570112223e-10,1.5554077652463206e-10,3.970684734131851e-10,-6.365410632796567e-10,4.517875549631084e-10,-6.365409940176705e-10,1.4618763098859287e-09,6.090633096098318e-10,0.0,0.0,0.0,6.280380462878344e-10,0.0,0.0,-0.0,6.368115313355767e-10,0.009366241283714771,0.0,0.0,0.0,0.006357183679938316,0.0,0.0,-0.0,0.007645312696695326,-9.758763032969904,-0.014090983044376393,0.0608912780880928
1707028608.6635952,-0.688784658908844,0.1485832929611206,-0.2175336182117462,0.6754093766212463,0.0052354643183541005,-0.00027203659756499995,0.0002208426719784383,0.9504808783531189,-9.693218231201172,0.04658890515565872,1.3211042320372968e-09,1.5553082011412286e-10,4.517310371824091e-10,1.555307681676332e-10,3.9716672154054045e-10,-6.366327661493206e-10,4.517310371824091e-10,-6.366326276253484e-10,1.4618206232490634e-09,6.090633096098318e-10,0.0,0.0,0.0,6.280380462878344e-10,0.0,0.0,-0.0,6.368115313355767e-10,0.009366241283714771,0.0,0.0,0.0,0.006357183679938316,0.0,0.0,-0.0,0.007645312696695326,-9.739699420264994,-0.012197569242940243,0.04658890515565872
1707028608.666103,-0.6887751817703247,0.14862209558486938,-0.21749846637248993,0.6754218339920044,0.003599982718141228,0.001796150581330374,0.003986596216905712,0.9600102305412291,-9.676370620727539,0.032286934554576874,1.321102154177712e-09,1.5551142675800055e-10,4.516888566328432e-10,1.5551140944250404e-10,3.972759476927007e-10,-6.367526586473481e-10,4.516888566328432e-10,-6.367525893853622e-10,1.461823255204537e-09,6.090633096098318e-10,0.0,0.0,0.0,6.280380462878344e-10,0.0,0.0,-0.0,6.368115313355767e-10,0.009366241283714771,0.0,0.0,0.0,0.006357183679938316,0.0,0.0,-0.0,0.007645312696695326,-9.723876126856611,-0.0010497480428788286,0.032286934554576874
1707028608.6686103,-0.6887983679771423,0.1486210972070694,-0.217499703168869,0.6753979921340942,0.0014831017082162351,0.0017658697367026136,0.0039839887116495075,0.9647749662399294,-9.66914367675781,0.02513551898300648,1.3211166991948034e-09,1.5555712235336368e-10,4.516627102330711e-10,1.5555712235336368e-10,3.9730129757963196e-10,-6.367476025223591e-10,4.5166274486406413e-10,-6.367474639983867e-10,1.4618056626600547e-09,6.090633096098318e-10,0.0,0.0,0.0,6.280380462878344e-10,0.0,0.0,-0.0,6.368115313355767e-10,0.009366241283714771,0.0,0.0,0.0,0.006357183679938316,0.0,0.0,-0.0,0.007645312696695326,-9.717155487334967,0.004405930635357991,0.02513551898300648
1707028608.6711175,-0.6888251900672913,0.14861778914928436,-0.21749743819236755,0.6753720641136169,-0.00111592824564673,-0.0019395882075204328,0.0012714434637570904,0.971921980381012,-9.6762638092041,0.02990363538265228,1.3211302745440891e-09,1.555610529710778e-10,4.5170191251723254e-10,1.5556103565558123e-10,3.972294728999933e-10,-6.366837429711278e-10,4.517018778862395e-10,-6.366836737091417e-10,1.4618465272318838e-09,6.090633096098318e-10,0.0,0.0,0.0,6.280380462878344e-10,0.0,0.0,-0.0,6.368115313355767e-10,0.009366241283714771,0.0,0.0,0.0,0.006357183679938316,0.0,0.0,-0.0,0.007645312696695326,-9.724947130629367,0.01081423711666385,0.02990363538265228
1707028608.6736252,-0.6888506412506104,0.14861759543418884,-0.21749722957611084,0.6753462553024292,-0.0011595247660539747,0.0012036124368378744,0.00398838266749467,0.9790003895759583,-9.69053554534912,0.041805773973464966,1.3211473129926823e-09,1.5557083622662164e-10,4.5173373839986896e-10,1.5557080159562854e-10,3.9717080799772327e-10,-6.366329739352792e-10,4.5173373839986896e-10,-6.366329739352792e-10,1.4618900237591867e-09,6.090633096098318e-10,0.0,0.0,0.0,6.280380462878344e-10,0.0,0.0,-0.0,6.368115313355767e-10,0.009366241283714771,0.0,0.0,0.0,0.006357183679938316,0.0,0.0,-0.0,0.007645312696695326,-9.739848581979263,0.0164474490770653,0.041805773973464966
1707028608.676133,-0.688876748085022,0.1486087143421173,-0.21751138567924497,0.6753169894218445,-0.0038041226037634464,0.004319179533197478,0.0018682767358484567,0.9861474037170409,-9.707234382629393,0.05849484354257584,1.3211795890782288e-09,1.5558964085586163e-10,4.5179250719511824e-10,1.555896754868547e-10,3.9708457682496526e-10,-6.365474353823825e-10,4.5179254182611126e-10,-6.365472968584103e-10,1.4619482038275537e-09,6.090633096098318e-10,0.0,0.0,0.0,6.280380462878344e-10,0.0,0.0,-0.0,6.368115313355767e-10,0.009366241283714771,0.0,0.0,0.0,0.006357183679938316,0.0,0.0,-0.0,0.007645312696695326,-9.757172031626123,0.021909048657653085,0.05849484354257584
1707028608.6786404,-0.6888896226882936,0.1485755741596222,-0.2175428569316864,0.6753010153770447,-0.004819360470895052,-0.00041549166498997247,0.00022047130208647904,0.9861474037170409,-9.72878646850586,0.07518122345209122,1.3211921947597084e-09,1.5560151928648652e-10,4.5185982984565693e-10,1.5560148465549347e-10,3.9695976672592096e-10,-6.364188158741e-10,4.5185986447665006e-10,-6.364188851360863e-10,1.4619771553377647e-09,6.090633096098318e-10,0.0,0.0,0.0,6.280380462878344e-10,0.0,0.0,-0.0,6.368115313355767e-10,0.009366241283714771,0.0,0.0,0.0,0.006357183679938316,0.0,0.0,-0.0,0.007645312696695326,-9.77861859591915,0.01977895813103714,0.07518122345209122
1707028608.6811478,-0.6888620257377625,0.14857320487499237,-0.21754398941993716,0.6753293871879578,0.0031282921433303055,-0.0018762928769575137,0.00021716860188523868,0.9861474037170409,-9.74075984954834,0.08471642434597014,1.321177926790561e-09,1.5556945098689858e-10,4.5186751792611983e-10,1.5556936440941592e-10,3.969530829442574e-10,-6.36433499415164e-10,4.5186751792611983e-10,-6.36433499415164e-10,1.4619720299507894e-09,6.090633096098318e-10,0.0,0.0,0.0,6.280380462878344e-10,0.0,0.0,-0.0,6.368115313355767e-10,0.009366241283714771,0.0,0.0,0.0,0.006357183679938316,0.0,0.0,-0.0,0.007645312696695326,-9.790533353859722,0.0185955745051396,0.08471642434597014
1707028608.711238,-0.6889313459396361,0.14859667420387268,-0.21752145886421204,0.6752607226371765,-0.0005986244040183053,-0.0024602087771093996,0.0028789958114553687,0.9623697400093079,-9.688310623168944,0.032276902347803116,1.3214132790195027e-09,1.5564338815711488e-10,4.5193626044737477e-10,1.5564338815711488e-10,3.968801154418473e-10,-6.363674927423622e-10,4.5193626044737477e-10,-6.36367423480376e-10,1.4621403365771367e-09,6.090633096098318e-10,0.0,0.0,0.0,6.280380462878344e-10,0.0,0.0,-0.0,6.368115313355767e-10,0.009366241283714771,0.0,0.0,0.0,0.006357183679938316,0.0,0.0,-0.0,0.007645312696695326,-9.735990870658231,0.00011812431821078828,0.032276902347803116
1707028608.713745,-0.6889596581459044,0.1486029028892517,-0.2175109088420868,0.6752339005470276,-0.00430916068969211,-0.001463377800887488,0.0028911636491689985,0.9623239040374755,-9.705052375793455,0.034643691033124924,1.3214328108995971e-09,1.5564962173586846e-10,4.519616795962921e-10,1.5564958710487536e-10,3.96844653304938e-10,-6.363390260660539e-10,4.519616449652992e-10,-6.363390260660539e-10,1.4621745519982954e-09,6.090633096098318e-10,0.0,0.0,0.0,6.280380462878344e-10,0.0,0.0,-0.0,6.368115313355767e-10,0.009366241283714771,0.0,0.0,0.0,0.006357183679938316,0.0,0.0,-0.0,0.007645312696695326,-9.752646123487478,-0.001582150680288219,0.034643691033124924
1707028608.7212677,-0.6889867782592772,0.14860373735427856,-0.2175001949071884,0.6752094626426697,0.004714017882722736,-0.002379544642334387,0.0007505156163444444,0.9742356538772584,-9.750444412231444,0.05370786413550377,1.3214382133345169e-09,1.5564506776027902e-10,4.5199388641985247e-10,1.5564505044478248e-10,3.9675724467841525e-10,-6.36278491090158e-10,4.519938171578663e-10,-6.36278560352144e-10,1.462220403433127e-09,6.090633096098318e-10,0.0,0.0,0.0,6.280380462878344e-10,0.0,0.0,-0.0,6.368115313355767e-10,0.009366241283714771,0.0,0.0,0.0,0.006357183679938316,0.0,0.0,-0.0,0.007645312696695326,-9.798993207434405,0.005784976700843325,0.05370786413550377
1707028608.7237751,-0.6890094876289368,0.14858755469322205,-0.2175167202949524,0.6751845479011536,0.0020732885206699,0.0017879469266276883,-0.002432373801540286,0.9790003895759583,-9.757586479187012,0.06563030928373337,1.3214452780571042e-09,1.5569299705469559e-10,4.519758436724601e-10,1.5569301437019212e-10,3.9675260412534317e-10,-6.36239081020038e-10,4.519758436724601e-10,-6.36239081020038e-10,1.462188265871553e-09,6.090633096098318e-10,0.0,0.0,0.0,6.280380462878344e-10,0.0,0.0,-0.0,6.368115313355767e-10,0.009366241283714771,0.0,0.0,0.0,0.006357183679938316,0.0,0.0,-0.0,0.007645312696695326,-9.80657122644646,0.009820500772038332,0.06563030928373337
1707028608.7262828,-0.6889795064926147,0.14860038459300995,-0.21751262247562408,0.675213634967804,0.005231091428529859,0.0039313296410569696,-0.0018752670137535332,0.9790003895759583,-9.7647705078125,0.0775521397590637,1.3214700738481465e-09,1.5569149060649676e-10,4.5196687424525355e-10,1.5569149060649676e-10,3.968135200421631e-10,-6.363076503863276e-10,4.5196694350723965e-10,-6.363075118623553e-10,1.4621782921455475e-09,6.090633096098318e-10,0.0,0.0,0.0,6.280380462878344e-10,0.0,0.0,-0.0,6.368115313355767e-10,0.009366241283714771,0.0,0.0,0.0,0.006357183679938316,0.0,0.0,-0.0,0.007645312696695326,-9.813720081210803,0.00911047059649972,0.0775521397590637
1707028608.7287903,-0.6889485716819763,0.1485992819070816,-0.21752241253852844,0.6752422451972961,0.005745159035203606,0.003935368075289801,-0.0002673584454931552,0.9766179919242858,-9.75760746002197,0.0918637439608574,1.321466195176922e-09,1.5570426944294166e-10,4.519243820167498e-10,1.5570423481194856e-10,3.968959764366759e-10,-6.36368393148182e-10,4.5192441664774285e-10,-6.36368393148182e-10,1.4621270382757956e-09,6.090633096098318e-10,0.0,0.0,0.0,6.280380462878344e-10,0.0,0.0,-0.0,6.368115313355767e-10,0.009366241283714771,0.0,0.0,0.0,0.006357183679938316,0.0,0.0,-0.0,0.007645312696695326,-9.806356641377105,0.007447693992264859,0.0918637439608574
1707028608.7312975,-0.6889179944992065,0.14859500527381897,-0.21753245592117307,0.6752711534500122,0.006283729805174649,0.0023685838095972244,-0.00027978822682340446,0.9670886397361756,-9.743324279785154,0.10617699474096298,1.3214477714886056e-09,1.5569713545836812e-10,4.518989974988254e-10,1.5569713545836812e-10,3.9693919591603414e-10,-6.364035089751607e-10,4.5189892823683935e-10,-6.364035089751607e-10,1.4620936539984711e-09,6.090633096098318e-10,0.0,0.0,0.0,6.280380462878344e-10,0.0,0.0,-0.0,6.368115313355767e-10,0.009366241283714771,0.0,0.0,0.0,0.006357183679938316,0.0,0.0,-0.0,0.007645312696695326,-9.791201564140003,-0.0006233297804626448,0.10617699474096298
1707028608.7338054,-0.688887894153595,0.14859110116958618,-0.2175430804491043,0.6752992868423462,0.0057611369618862564,0.002887774620544061,-0.001359598649564132,0.9600102305412291,-9.726658821105955,0.11335479468107224,1.3214281010845387e-09,1.556862266955493e-10,4.5187742239013934e-10,1.5568615743356318e-10,3.969782250452303e-10,-6.364370317764578e-10,4.5187745702113247e-10,-6.364368932524855e-10,1.4620640098683983e-09,6.090633096098318e-10,0.0,0.0,0.0,6.280380462878344e-10,0.0,0.0,-0.0,6.368115313355767e-10,0.009366241283714771,0.0,0.0,0.0,0.006357183679938316,0.0,0.0,-0.0,0.007645312696695326,-9.773918110207005,-0.006019959271648778,0.11335479468107224
1707028608.746343,-0.6888573169708252,0.14859141409397125,-0.21754190325737,0.6753308176994324,-0.004332517445332379,0.0032604837652777737,0.002382641607484088,0.9552455544471741,-9.674017906188963,0.02274763025343418,1.3213398613141823e-09,1.5561400375949026e-10,4.518521763961873e-10,1.5561395181300067e-10,3.969981724972417e-10,-6.364730480092562e-10,4.518521763961873e-10,-6.364731865332287e-10,1.4620469714198051e-09,6.090633096098318e-10,0.0,0.0,0.0,6.280380462878344e-10,0.0,0.0,-0.0,6.368115313355767e-10,0.009366241283714771,0.0,0.0,0.0,0.006357183679938316,0.0,0.0,-0.0,0.007645312696695326,-9.72106401691178,-0.0055585662516195455,0.02274763025343418
1707028608.7488503,-0.6888885498046875,0.1485985815525055,-0.21753261983394623,0.6753003597259521,-0.008010191128481121,-0.0004648237671951317,0.0018118019846887516,0.9600102305412291,-9.673975944519043,0.02274826355278492,1.3213829422695682e-09,1.5562624581554247e-10,4.5190388046884915e-10,1.5562624581554247e-10,3.969518708594998e-10,-6.364307289357181e-10,4.519039150998421e-10,-6.364306596737319e-10,1.462100995769003e-09,6.090633096098318e-10,0.0,0.0,0.0,6.280380462878344e-10,0.0,0.0,-0.0,6.368115313355767e-10,0.009366241283714771,0.0,0.0,0.0,0.006357183679938316,0.0,0.0,-0.0,0.007645312696695326,-9.721493175268497,-0.0008130713176992543,0.02274826355278492
1707028608.7513576,-0.6889160871505737,0.14860714972019196,-0.21752128005027768,0.6752740144729614,-0.004330903944174439,-0.00041771907160943934,0.004495127361192256,0.9623926281929016,-9.700295448303223,0.02989368885755539,1.321415356879087e-09,1.5564137955951651e-10,4.519306155955034e-10,1.5564134492852344e-10,3.96924443112984e-10,-6.364080110042604e-10,4.519305809645104e-10,-6.364079417422744e-10,1.462139089861386e-09,6.090633096098318e-10,0.0,0.0,0.0,6.280380462878344e-10,0.0,0.0,-0.0,6.368115313355767e-10,0.009366241283714771,0.0,0.0,0.0,0.006357183679938316,0.0,0.0,-0.0,0.007645312696695326,-9.747919278802094,-0.0010436142589366204,0.02989368885755539
1707028608.7538652,-0.6889398694038391,0.14861157536506653,-0.21751730144023892,0.6752501130104065,0.00042501887047931183,0.0017511079175980611,0.0039946988327302785,0.9766179919242858,-9.719292640686035,0.0417950376868248,1.3214434772454647e-09,1.5566686797042007e-10,4.519439485278375e-10,1.5566686797042007e-10,3.9690324894522167e-10,-6.363845311909553e-10,4.519439485278375e-10,-6.363845311909553e-10,1.4621662405599572e-09,6.090633096098318e-10,0.0,0.0,0.0,6.280380462878344e-10,0.0,0.0,-0.0,6.368115313355767e-10,0.009366241283714771,0.0,0.0,0.0,0.006357183679938316,0.0,0.0,-0.0,0.007645312696695326,-9.768229415967282,0.011234521595137048,0.0417950376868248
1707028608.7588804,-0.6889773607254028,0.14857040345668793,-0.21755665540695193,0.6752082109451294,-0.0011160018466827867,0.0006882466041155868,-0.0003019969493420683,0.9932944774627683,-9.762248039245604,0.06801536679267883,1.3214648099371988e-09,1.557040097104936e-10,4.520211756423959e-10,1.5570406165698324e-10,3.9672777370330805e-10,-6.361995324259457e-10,4.5202114101140285e-10,-6.361995324259457e-10,1.4622116764228722e-09,6.090633096098318e-10,0.0,0.0,0.0,6.280380462878344e-10,0.0,0.0,-0.0,6.368115313355767e-10,0.009366241283714771,0.0,0.0,0.0,0.006357183679938316,0.0,0.0,-0.0,0.007645312696695326,-9.812622712573804,0.023583879948181785,0.06801536679267883
1707028608.7613878,-0.6889522075653076,0.14858894050121307,-0.2175382375717163,0.6752356886863708,0.000977990151288681,-0.001388853110839248,0.0034334350168151407,0.9861474037170409,-9.769495964050293,0.07755134999752045,1.321465225509116e-09,1.5566340487111252e-10,4.520294870807341e-10,1.5566338755561598e-10,3.96752985066267e-10,-6.362574354463679e-10,4.520294870807341e-10,-6.362575047083543e-10,1.462230377159133e-09,6.090633096098318e-10,0.0,0.0,0.0,6.280380462878344e-10,0.0,0.0,-0.0,6.368115313355767e-10,0.009366241283714771,0.0,0.0,0.0,0.006357183679938316,0.0,0.0,-0.0,0.007645312696695326,-9.819128772917091,0.015755453802985153,0.07755134999752045
1707028608.7638953,-0.6889474391937256,0.14855435490608215,-0.2175725549459457,0.6752371788024902,0.005222365414530635,0.00025051975404363313,0.0013007122291204857,0.9790462255477904,-9.769580841064451,0.08471707999706268,1.321432256803708e-09,1.5569614847506548e-10,4.5199187782225405e-10,1.5569614847506548e-10,3.96744742889915e-10,-6.362118610594807e-10,4.5199194708424015e-10,-6.362117917974944e-10,1.4621631930325667e-09,6.090633096098318e-10,0.0,0.0,0.0,6.280380462878344e-10,0.0,0.0,-0.0,6.368115313355767e-10,0.009366241283714771,0.0,0.0,0.0,0.006357183679938316,0.0,0.0,-0.0,0.007645312696695326,-9.818511392674582,0.008680655068382892,0.08471707999706268
1707028608.7664027,-0.688930094242096,0.1485795825719833,-0.2175445109605789,0.6752583384513855,0.004749135199672163,-0.002371555678993061,-0.0030077612141483725,0.9695167541503905,-9.76487636566162,0.08710244297981262,1.3214148027831978e-09,1.5563237550131683e-10,4.5200711545920735e-10,1.5563232355482727e-10,3.9675246560137087e-10,-6.362634612391631e-10,4.5200715009020037e-10,-6.362632534532048e-10,1.4621990707413929e-09,6.090633096098318e-10,0.0,0.0,0.0,6.280380462878344e-10,0.0,0.0,-0.0,6.368115313355767e-10,0.009366241283714771,0.0,0.0,0.0,0.006357183679938316,0.0,0.0,-0.0,0.007645312696695326,-9.812888110007941,-0.0003371942306896747,0.08710244297981262
1707028608.7689104,-0.688949465751648,0.1485646814107895,-0.2175584435462952,0.6752372980117798,0.005765555104644329,0.001312368890733868,-0.0008329243297409044,0.9647520780563353,-9.752945899963379,0.07279683649539948,1.3213994266222722e-09,1.55664547693884e-10,4.5198141926234524e-10,1.5566451306289095e-10,3.9674089884968365e-10,-6.362244667409601e-10,4.5198148852433134e-10,-6.362244667409601e-10,1.462170811851043e-09,6.090633096098318e-10,0.0,0.0,0.0,6.280380462878344e-10,0.0,0.0,-0.0,6.368115313355767e-10,0.009366241283714771,0.0,0.0,0.0,0.006357183679938316,0.0,0.0,-0.0,0.007645312696695326,-9.800545142715672,-0.0038993997946765724,0.07279683649539948
1707028608.7714179,-0.6889234781265259,0.1485883593559265,-0.2175406962633133,0.6752644181251526,0.00523010158562091,0.002354368406664953,-0.0008248550684494636,0.957605004310608,-9.7386417388916,0.06326154619455338,1.3214211748859237e-09,1.5565460859887134e-10,4.519643115517659e-10,1.556545566523817e-10,3.968192687870136e-10,-6.363171392784303e-10,4.519643115517659e-10,-6.363171392784303e-10,1.462165686464068e-09,6.090633096098318e-10,0.0,0.0,0.0,6.280380462878344e-10,0.0,0.0,-0.0,6.368115313355767e-10,0.009366241283714771,0.0,0.0,0.0,0.006357183679938316,0.0,0.0,-0.0,0.007645312696695326,-9.785604638765928,-0.009597735413257036,0.06326154619455338
1707028608.7739253,-0.6889429092407227,0.14859361946582794,-0.217537522315979,0.6752444505691528,0.005231797270267875,0.0028800782408266367,-0.0013642565808566363,0.9576507806777954,-9.71711254119873,0.04897207021713257,1.321420897837979e-09,1.5566846099610155e-10,4.519589783788323e-10,1.5566846099610155e-10,3.968187493221175e-10,-6.363049491688676e-10,4.519589437478392e-10,-6.363050876928399e-10,1.4621795388612982e-09,6.090633096098318e-10,0.0,0.0,0.0,6.280380462878344e-10,0.0,0.0,-0.0,6.368115313355767e-10,0.009366241283714771,0.0,0.0,0.0,0.006357183679938316,0.0,0.0,-0.0,0.007645312696695326,-9.764185374879483,-0.007424354789140497,0.04897207021713257
1707028608.7764328,-0.6889557242393494,0.14862120151519775,-0.2175144255161285,0.6752327680587769,0.0009898690464190615,0.0033431239448300305,-0.0008293595558858775,0.9457390904426575,-9.695666313171385,0.041823647916316986,1.3214630091255591e-09,1.556733439661252e-10,4.5197618998239083e-10,1.556733439661252e-10,3.9684503424586175e-10,-6.363423506413893e-10,4.5197622461338396e-10,-6.363423506413893e-10,1.4622240050564072e-09,6.090633096098318e-10,0.0,0.0,0.0,6.280380462878344e-10,0.0,0.0,-0.0,6.368115313355767e-10,0.009366241283714771,0.0,0.0,0.0,0.006357183679938316,0.0,0.0,-0.0,0.007645312696695326,-9.741666863699681,-0.017158095853289645,0.041823647916316986
1707028608.7789402,-0.6889766454696655,0.14863593876361847,-0.21750237047672272,0.675212025642395,0.0009828842300749646,0.002815984221989051,0.0002377856369805895,0.9457390904426575,-9.676508903503418,0.044215478003025055,1.3215045663172496e-09,1.557084597931038e-10,4.51973523395924e-10,1.557084597931038e-10,3.968774834863735e-10,-6.363606358057332e-10,4.51973523395924e-10,-6.363606358057332e-10,1.462236333689942e-09,6.090633096098318e-10,0.0,0.0,0.0,6.280380462878344e-10,0.0,0.0,-0.0,6.368115313355767e-10,0.009366241283714771,0.0,0.0,0.0,0.006357183679938316,0.0,0.0,-0.0,0.007645312696695326,-9.72260325099477,-0.015264682051853606,0.044215478003025055
1707028608.783955,-0.6889736652374268,0.1486719697713852,-0.21746191382408145,0.6752201914787292,-0.0006130253049681299,-0.0008870314942160026,0.0034278293746555295,0.9337815642356871,-9.657435417175295,0.06090301647782326,1.3215245137692613e-09,1.557307448371479e-10,4.51894183790788e-10,1.5573069289065827e-10,3.970418768105031e-10,-6.36509618337944e-10,4.51894218421781e-10,-6.365094798139718e-10,1.462183140484578e-09,6.090633096098318e-10,0.0,0.0,0.0,6.280380462878344e-10,0.0,0.0,-0.0,6.368115313355767e-10,0.009366241283714771,0.0,0.0,0.0,0.006357183679938316,0.0,0.0,-0.0,0.007645312696695326,-9.702441334110521,-0.02527854350746106,0.06090301647782326
1707028608.7864628,-0.6889483332633972,0.14868654310703275,-0.21745236217975616,0.6752458810806273,-0.0016940340852137732,0.0011946125645666795,0.0045154734963611665,0.9361639022827148,-9.66459846496582,0.07044026255607605,1.3215601144301428e-09,1.5576331528613544e-10,4.5183790842704013e-10,1.5576324602414927e-10,3.971804354137983e-10,-6.366277792863177e-10,4.5183794305803326e-10,-6.366276407623455e-10,1.462118449789513e-09,6.090633096098318e-10,0.0,0.0,0.0,6.280380462878344e-10,0.0,0.0,-0.0,6.368115313355767e-10,0.009366241283714771,0.0,0.0,0.0,0.006357183679938316,0.0,0.0,-0.0,0.007645312696695326,-9.70980476805322,-0.023615826216039082,0.07044026255607605
1707028608.7889702,-0.6889263391494751,0.14870594441890717,-0.2174304574728012,0.6752710342407227,-0.0011297785042163728,-0.0029937406068910365,0.0034097349630561624,0.9409285783767699,-9.676528930664062,0.07997609674930573,1.321553880851389e-09,1.5575334156012968e-10,4.5178675845026765e-10,1.5575337619112278e-10,3.972962414546429e-10,-6.36737421010395e-10,4.517867238192745e-10,-6.36737421010395e-10,1.4620703819711242e-09,6.090633096098318e-10,0.0,0.0,0.0,6.280380462878344e-10,0.0,0.0,-0.0,6.368115313355767e-10,0.009366241283714771,0.0,0.0,0.0,0.006357183679938316,0.0,0.0,-0.0,0.007645312696695326,-9.72214773534549,-0.020053620652052517,0.07997609674930573
1707028608.7990003,-0.6889164447784424,0.14869672060012817,-0.2174292951822281,0.6752836108207704,0.0036517918658156246,0.0007573032963446157,-0.0008398925663463139,0.9718990921974182,-9.75288200378418,0.06564312428236008,1.32147810823854e-09,1.5570510058677544e-10,4.5175988479964104e-10,1.5570506595578242e-10,3.9727743682540284e-10,-6.367359665086859e-10,4.517599194306341e-10,-6.367358279847136e-10,1.462040599317079e-09,6.090633096098318e-10,0.0,0.0,0.0,6.280380462878344e-10,0.0,0.0,-0.0,6.368115313355767e-10,0.009366241283714771,0.0,0.0,0.0,0.006357183679938316,0.0,0.0,-0.0,0.007645312696695326,-9.801187931245732,0.0032189368621682313,0.06564312428236008
1707028608.8015077,-0.6889282464981079,0.14866475760936737,-0.21745876967906952,0.6752690672874451,0.0025844325017364625,-0.0003109386949999817,0.0007573400318440609,0.976663827896118,-9.755233764648436,0.060873121023178094,1.3214743680912878e-09,1.557623456183293e-10,4.5172899395381765e-10,1.5576231098733626e-10,3.972700257928848e-10,-6.366818036355156e-10,4.5172899395381765e-10,-6.366818728975018e-10,1.4619770168137924e-09,6.090633096098318e-10,0.0,0.0,0.0,6.280380462878344e-10,0.0,0.0,-0.0,6.368115313355767e-10,0.009366241283714771,0.0,0.0,0.0,0.006357183679938316,0.0,0.0,-0.0,0.007645312696695326,-9.803999098076542,0.0077279086396863095,0.060873121023178094
1707028608.8040152,-0.6889251470565796,0.14870178699493408,-0.21742795407772064,0.6752740144729614,0.00151380023222176,0.0033492640397426335,-0.00030096500690056946,0.9791377186775208,-9.757652282714846,0.053741954267024994,1.3214919606357702e-09,1.5571261551227286e-10,4.5177058577650133e-10,1.5571259819677635e-10,3.9726884833912014e-10,-6.367286247381537e-10,4.5177058577650133e-10,-6.367285554761677e-10,1.4620609623410075e-09,6.090633096098318e-10,0.0,0.0,0.0,6.280380462878344e-10,0.0,0.0,-0.0,6.368115313355767e-10,0.009366241283714771,0.0,0.0,0.0,0.006357183679938316,0.0,0.0,-0.0,0.007645312696695326,-9.806650280651164,0.009950653832432765,0.053741954267024994
1707028608.8065228,-0.6889309287071228,0.1486710160970688,-0.21746449172496796,0.6752631068229675,0.00361939648682864,0.004427937157427967,0.00024611677687006725,0.983902394771576,-9.743242263793944,0.056132685393095016,1.3215074753206679e-09,1.5578300300569887e-10,4.517458592474455e-10,1.5578298569020236e-10,3.9727286553431686e-10,-6.366799335618897e-10,4.517458592474455e-10,-6.366799335618897e-10,1.4620055527520866e-09,6.090633096098318e-10,0.0,0.0,0.0,6.280380462878344e-10,0.0,0.0,-0.0,6.368115313355767e-10,0.009366241283714771,0.0,0.0,0.0,0.006357183679938316,0.0,0.0,-0.0,0.007645312696695326,-9.792781729479191,0.016116209117431057,0.056132685393095016
1707028608.8090303,-0.6889545321464539,0.14866556227207184,-0.21746943891048431,0.6752386689186096,0.0025998595909831825,0.0012687974674996955,-0.0019243600751379653,0.983902394771576,-9.731268882751465,0.05852190777659416,1.3215022114097204e-09,1.5574414703146814e-10,4.5183984776265244e-10,1.557441297159716e-10,3.971129742392872e-10,-6.365576861563329e-10,4.5183984776265244e-10,-6.365577554183191e-10,1.462113878498427e-09,6.090633096098318e-10,0.0,0.0,0.0,6.280380462878344e-10,0.0,0.0,-0.0,6.368115313355767e-10,0.009366241283714771,0.0,0.0,0.0,0.006357183679938316,0.0,0.0,-0.0,0.007645312696695326,-9.780866971538622,0.017299592743328485,0.05852190777659416
1707028608.8140452,-0.6889213919639587,0.14863121509552,-0.21751196682453156,0.6752663254737854,0.004673143560352267,0.004442278696411431,0.0007951887144504785,0.9743043184280397,-9.707373619079588,0.08236014097929002,1.3214839262453767e-09,1.5576547972320267e-10,4.518195540007102e-10,1.5576542777671303e-10,3.971089224130973e-10,-6.365294965279696e-10,4.518196232626963e-10,-6.365293580039972e-10,1.4620548672862263e-09,6.090633096098318e-10,0.0,0.0,0.0,6.280380462878344e-10,0.0,0.0,-0.0,6.368115313355767e-10,0.009366241283714771,0.0,0.0,0.0,0.006357183679938316,0.0,0.0,-0.0,0.007645312696695326,-9.756140080453209,0.010110187156290307,0.08236014097929002
1707028608.8165529,-0.6889026165008545,0.14866217970848083,-0.2174818962812424,0.6752883195877075,0.004696142973859877,-0.00028196147296315806,0.0012916964923150168,0.976686716079712,-9.700167655944824,0.08713284134864806,1.321480463146069e-09,1.5570745549430458e-10,4.518403325965555e-10,1.5570745549430458e-10,3.9712336353720984e-10,-6.365885077401702e-10,4.5184026333456935e-10,-6.365886462641423e-10,1.4621084760635071e-09,6.090633096098318e-10,0.0,0.0,0.0,6.280380462878344e-10,0.0,0.0,-0.0,6.368115313355767e-10,0.009366241283714771,0.0,0.0,0.0,0.006357183679938316,0.0,0.0,-0.0,0.007645312696695326,-9.74920486175321,0.013193118367566092,0.08713284134864806
1707028608.8190603,-0.6888914704322815,0.14862865209579468,-0.21750831604003903,0.6752985715866089,0.0020850779502299506,-0.004515736691585511,0.00018204655483389183,0.971921980381012,-9.697815895080566,0.08951795101165771,1.3214533124474979e-09,1.5574965335936715e-10,4.5177595358042803e-10,1.5574963604387059e-10,3.9716800288728413e-10,-6.365834516151812e-10,4.5177602284241424e-10,-6.365834516151812e-10,1.4619944708343027e-09,6.090633096098318e-10,0.0,0.0,0.0,6.280380462878344e-10,0.0,0.0,-0.0,6.368115313355767e-10,0.009366241283714771,0.0,0.0,0.0,0.006357183679938316,0.0,0.0,-0.0,0.007645312696695326,-9.746393694922396,0.008684146590047903,0.08951795101165771
1707028608.8441353,-0.6889339685440063,0.14862896502017975,-0.21749801933765409,0.6752585172653198,0.0041517332750531,0.003910722391258374,0.00024240814939995576,0.9672259688377379,-9.752969741821287,0.06566653400659561,1.3214175732626438e-09,1.5571993996730832e-10,4.51809857322649e-10,1.5571992265181178e-10,3.970612009046392e-10,-6.365061552386365e-10,4.5180989195364204e-10,-6.365061552386365e-10,1.4620538976184202e-09,6.090633096098318e-10,0.0,0.0,0.0,6.280380462878344e-10,0.0,0.0,-0.0,6.368115313355767e-10,0.009366241283714771,0.0,0.0,0.0,0.006357183679938316,0.0,0.0,-0.0,0.007645312696695326,-9.800813373702175,-0.0014399778767502092,0.06566653400659561
1707028608.8466427,-0.6889083981513977,0.1486576348543167,-0.21748158335685727,0.6752835512161255,0.0036100462944317607,0.006002291406712443,0.00025919848327830527,0.9672259688377379,-9.750575065612793,0.07043717056512833,1.3214574681666669e-09,1.5571078006963988e-10,4.518141515657904e-10,1.557107454386468e-10,3.9713105161767264e-10,-6.365938409131038e-10,4.518141861967834e-10,-6.365937023891315e-10,1.46207855488549e-09,6.090633096098318e-10,0.0,0.0,0.0,6.280380462878344e-10,0.0,0.0,-0.0,6.368115313355767e-10,0.009366241283714771,0.0,0.0,0.0,0.006357183679938316,0.0,0.0,-0.0,0.007645312696695326,-9.798430422114063,-0.001203301151570857,0.07043717056512833
1707028608.8667028,-0.6888609528541565,0.1487259864807129,-0.21741914749145508,0.675337016582489,-0.0016158335045520068,-0.0035170556766003815,-0.0008933098186362534,0.9505266547203065,-9.695634841918944,0.07998844981193542,1.3215243752452888e-09,1.5580321019015848e-10,4.5159202837620396e-10,1.5580319287466194e-10,3.9764282843334285e-10,-6.370035255611873e-10,4.5159202837620396e-10,-6.370034562992013e-10,1.4618505444270808e-09,6.090633096098318e-10,0.0,0.0,0.0,6.280380462878344e-10,0.0,0.0,-0.0,6.368115313355767e-10,0.009366241283714771,0.0,0.0,0.0,0.006357183679938316,0.0,0.0,-0.0,0.007645312696695326,-9.742108723254674,-0.012390861614654636,0.07998844981193542
1707028608.8692102,-0.6888465881347656,0.14875583350658417,-0.21738673746585843,0.6753555536270142,0.00047966139796756574,-0.0024407375319945366,0.0007252757274821662,0.9529089927673341,-9.705192565917969,0.08237017691135406,1.3215063671288895e-09,1.5573529881273735e-10,4.5160678117925415e-10,1.557352468662477e-10,3.976578582843376e-10,-6.370664154446125e-10,4.5160678117925415e-10,-6.370663461826263e-10,1.4618930712865775e-09,6.090633096098318e-10,0.0,0.0,0.0,6.280380462878344e-10,0.0,0.0,-0.0,6.368115313355767e-10,0.009366241283714771,0.0,0.0,0.0,0.006357183679938316,0.0,0.0,-0.0,0.007645312696695326,-9.75185510878549,-0.010964821048412676,0.08237017691135406
1707028608.8717177,-0.6888310313224792,0.1487288922071457,-0.21740989387035367,0.6753698587417603,0.0015361676651017445,-0.0029515591509261434,0.0012579718734153584,0.9600560069084167,-9.707523345947264,0.0871400535106659,1.321486419676878e-09,1.557796091683775e-10,4.515345409276985e-10,1.557796091683775e-10,3.977287132961702e-10,-6.370882329702502e-10,4.515345409276985e-10,-6.370882329702502e-10,1.4617774037697051e-09,6.090633096098318e-10,0.0,0.0,0.0,6.280380462878344e-10,0.0,0.0,-0.0,6.368115313355767e-10,0.009366241283714771,0.0,0.0,0.0,0.006357183679938316,0.0,0.0,-0.0,0.007645312696695326,-9.75488084890366,-0.004083161116747558,0.0871400535106659
1707028608.8742251,-0.6888042092323303,0.14873965084552765,-0.21740013360977167,0.6753979921340942,0.0015139567969698383,-0.0008543958715645038,0.0023589332313464734,0.9718990921974182,-9.70977783203125,0.08950760960578918,1.3214582993105007e-09,1.557331170601736e-10,4.515270606331942e-10,1.557330824291805e-10,3.9775541379183135e-10,-6.371398331499327e-10,4.515270606331942e-10,-6.371399024119189e-10,1.4617780963895666e-09,6.090633096098318e-10,0.0,0.0,0.0,6.280380462878344e-10,0.0,0.0,-0.0,6.368115313355767e-10,0.009366241283714771,0.0,0.0,0.0,0.006357183679938316,0.0,0.0,-0.0,0.007645312696695326,-9.758294802659677,0.00747911791539968,0.08950760960578918
1707028608.8767328,-0.6888139247894287,0.1487058401107788,-0.21743066608905792,0.6753857135772705,0.004180260048346282,-0.0008118354872973675,0.00021918328395548368,0.9814285039901731,-9.719271659851074,0.08712051063776016,1.3214197896462007e-09,1.5574759281527915e-10,4.515221776631705e-10,1.5574762744627222e-10,3.9768964953598093e-10,-6.3705152411759e-10,4.515221430321775e-10,-6.370515933795761e-10,1.4617510842149678e-09,6.090633096098318e-10,0.0,0.0,0.0,6.280380462878344e-10,0.0,0.0,-0.0,6.368115313355767e-10,0.009366241283714771,0.0,0.0,0.0,0.006357183679938316,0.0,0.0,-0.0,0.007645312696695326,-9.768683982611547,0.01602355445129955,0.08712051063776016
1707028608.8792403,-0.688814640045166,0.14866846799850464,-0.2174604833126068,0.6753835678100586,0.002596148070186124,-0.003986786851391331,0.0017983209016338884,0.993340253829956,-9.723954200744629,0.07519593089818953,1.321377816882593e-09,1.5572376669204318e-10,4.515653278805427e-10,1.5572380132303623e-10,3.97548909180122e-10,-6.369254673027951e-10,4.515653278805427e-10,-6.369255365647812e-10,1.4617643825163086e-09,6.090633096098318e-10,0.0,0.0,0.0,6.280380462878344e-10,0.0,0.0,-0.0,6.368115313355767e-10,0.009366241283714771,0.0,0.0,0.0,0.006357183679938316,0.0,0.0,-0.0,0.007645312696695326,-9.774520889560534,0.027414186160482967,0.07519593089818953
1707028608.8817475,-0.6888394951820374,0.148666650056839,-0.2174500674009323,0.6753620505332947,0.001562210338409424,-0.005572748998351872,0.00017667853934082576,0.993340253829956,-9.738322257995604,0.05849652364850044,1.3213339047833735e-09,1.556615694284795e-10,4.516246507716811e-10,1.5566153479748643e-10,3.9741080077973676e-10,-6.368343877910065e-10,4.5162468540267413e-10,-6.368343185290202e-10,1.461840709225047e-09,6.090633096098318e-10,0.0,0.0,0.0,6.280380462878344e-10,0.0,0.0,-0.0,6.368115313355767e-10,0.009366241283714771,0.0,0.0,0.0,0.006357183679938316,0.0,0.0,-0.0,0.007645312696695326,-9.788818599089216,0.025994125809405966,0.05849652364850044
1707028608.8842554,-0.6888486742973328,0.1486276090145111,-0.21748113632202148,0.6753512620925903,0.000509572221838966,-0.004010003687040791,-0.001418801190358758,1.0004873275756836,-9.743047714233398,0.04418642446398735,1.3213161737149186e-09,1.5568761193527234e-10,4.5162281532904807e-10,1.556875426732862e-10,3.9734462095196944e-10,-6.367474639983867e-10,4.516228499600412e-10,-6.36747533260373e-10,1.4617923643587138e-09,6.090633096098318e-10,0.0,0.0,0.0,6.280380462878344e-10,0.0,0.0,-0.0,6.368115313355767e-10,0.009366241283714771,0.0,0.0,0.0,0.006357183679938316,0.0,0.0,-0.0,0.007645312696695326,-9.794227296686502,0.032639168328704726,0.04418642446398735
1707028608.8867629,-0.6888709664344788,0.14861242473125455,-0.21749097108840945,0.6753286719322205,0.0031198862808342128,-0.0013529381459124834,0.0007492708355712035,1.0004873275756836,-9.750231742858887,0.037029169499874115,1.3212814041978711e-09,1.5564525823074096e-10,4.5169058818249695e-10,1.5564525823074096e-10,3.9718254790437597e-10,-6.366225153753704e-10,4.5169058818249695e-10,-6.36622376851398e-10,1.4618688295914245e-09,6.090633096098318e-10,0.0,0.0,0.0,6.280380462878344e-10,0.0,0.0,-0.0,6.368115313355767e-10,0.009366241283714771,0.0,0.0,0.0,0.006357183679938316,0.0,0.0,-0.0,0.007645312696695326,-9.801376151450844,0.031929138153166226,0.037029169499874115
1707028608.8892703,-0.6888930201530457,0.14859989285469055,-0.21750487387180328,0.6753044724464417,0.003123323163136304,0.0023264424050795135,-0.0018989665473638476,0.9981048703193665,-9.747859001159668,0.03225994855165481,1.3212862525369015e-09,1.5564626252954014e-10,4.517409416464288e-10,1.5564631447602978e-10,3.9707744284039167e-10,-6.365283883361911e-10,4.517409416464288e-10,-6.365284575981771e-10,1.461919529365287e-09,6.090633096098318e-10,0.0,0.0,0.0,6.280380462878344e-10,0.0,0.0,-0.0,6.368115313355767e-10,0.009366241283714771,0.0,0.0,0.0,0.006357183679938316,0.0,0.0,-0.0,0.007645312696695326,-9.798779557907391,0.029792854529794965,0.03225994855165481
1707028608.8917775,-0.688914954662323,0.14859934151172635,-0.21750566363334653,0.6752819418907166,0.0036405075006090103,0.0018056955694021883,-0.0002954185641608611,0.976663827896118,-9.750444412231444,0.034641116857528687,1.32129941231427e-09,1.55642522382288e-10,4.517911565863882e-10,1.55642522382288e-10,3.969901034758552e-10,-6.364585722541506e-10,4.517911565863882e-10,-6.364583644681924e-10,1.4619829733446016e-09,6.090633096098318e-10,0.0,0.0,0.0,6.280380462878344e-10,0.0,0.0,-0.0,6.368115313355767e-10,0.009366241283714771,0.0,0.0,0.0,0.006357183679938316,0.0,0.0,-0.0,0.007645312696695326,-9.799233194900314,0.008201262090045347,0.034641116857528687
1707028608.8942852,-0.6889359951019287,0.14860500395298004,-0.21749685704708097,0.6752620935440063,0.0036582638155763154,-0.0002920136384923589,-0.0008406035445523934,0.9551768898963928,-9.745825767517088,0.039397753775119775,1.3213160351909463e-09,1.5564782092422855e-10,4.5181370136288036e-10,1.5564778629323548e-10,3.969511782396383e-10,-6.364281662422304e-10,4.518137359938735e-10,-6.36428027718258e-10,1.4620166346698709e-09,6.090633096098318e-10,0.0,0.0,0.0,6.280380462878344e-10,0.0,0.0,-0.0,6.368115313355767e-10,0.009366241283714771,0.0,0.0,0.0,0.006357183679938316,0.0,0.0,-0.0,0.007645312696695326,-9.79251351195536,-0.012723991665184675,0.039397753775119775
1707028608.896793,-0.6889493465423584,0.1486295610666275,-0.21747097373008728,0.6752514243125916,0.0030905712222396584,0.00021695932332092057,0.0029133721766319127,0.9408828616142274,-9.741164207458496,0.048937130719423294,1.3213391686943208e-09,1.5565516269476052e-10,4.5180258481410317e-10,1.5565509343277442e-10,3.969892030700352e-10,-6.364749180828823e-10,4.518026194450962e-10,-6.3647477955891e-10,1.4620349198342148e-09,6.090633096098318e-10,0.0,0.0,0.0,6.280380462878344e-10,0.0,0.0,-0.0,6.368115313355767e-10,0.009366241283714771,0.0,0.0,0.0,0.006357183679938316,0.0,0.0,-0.0,0.007645312696695326,-9.786462031719015,-0.026487311528514912,0.048937130719423294
1707028608.8993003,-0.6889462471008301,0.1486722230911255,-0.21744324266910553,0.6752541065216064,0.000938975490431726,0.00858676656063941,0.0013732762187770905,0.9313533902168274,-9.73406505584717,0.06324778497219086,1.3214033052934967e-09,1.5568799287619614e-10,4.5176920053677837e-10,1.5568799287619614e-10,3.9713157108256877e-10,-6.366079010962924e-10,4.517692351677714e-10,-6.366079703582785e-10,1.4620393526013284e-09,6.090633096098318e-10,0.0,0.0,0.0,6.280380462878344e-10,0.0,0.0,-0.0,6.368115313355767e-10,0.009366241283714771,0.0,0.0,0.0,0.006357183679938316,0.0,0.0,-0.0,0.007645312696695326,-9.778455797464265,-0.03526848410240824,0.06324778497219086
1707028608.9093304,-0.6888556480407715,0.1487693190574646,-0.21736592054367063,0.67535001039505,0.0020591999039746524,0.0007335416699874514,-0.00030208943827651254,0.9409056901931762,-9.688491821289062,0.09189016371965408,1.321499717978219e-09,1.5578869980405982e-10,4.5149658535928774e-10,1.5578873443505292e-10,3.977818372395481e-10,-6.37158741672152e-10,4.5149665462127384e-10,-6.37158810934138e-10,1.4617931955025474e-09,6.090633096098318e-10,0.0,0.0,0.0,6.280380462878344e-10,0.0,0.0,-0.0,6.368115313355767e-10,0.009366241283714771,0.0,0.0,0.0,0.006357183679938316,0.0,0.0,-0.0,0.007645312696695326,-9.734049792087784,-0.021258743582664552,0.09189016371965408
1707028608.9143453,-0.6888543367385864,0.14874927699565887,-0.21737538278102875,0.6753527522087097,0.0009771194874425345,-0.0029656884692544046,0.004487853602264912,0.979023277759552,-9.695334434509277,0.07281356304883957,1.3214268543687882e-09,1.55763557703087e-10,4.514692961367442e-10,1.5576352307209392e-10,3.977509810247177e-10,-6.371230717492841e-10,4.5146933076773735e-10,-6.371230717492841e-10,1.4617582874615274e-09,6.090633096098318e-10,0.0,0.0,0.0,6.280380462878344e-10,0.0,0.0,-0.0,6.368115313355767e-10,0.009366241283714771,0.0,0.0,0.0,0.006357183679938316,0.0,0.0,-0.0,0.007645312696695326,-9.744626237348758,0.01599592918738435,0.07281356304883957
1707028608.9193604,-0.6888731718063353,0.14868836104869843,-0.21743343770504,0.6753281950950624,-0.0032080678641859886,-0.003540438439673886,-0.0003434933044969514,1.0004644393920898,-9.726273536682129,0.053726039826869965,1.3214003962900783e-09,1.557442682399439e-10,4.5158738782313183e-10,1.557442509244474e-10,3.974932571742496e-10,-6.368803084878246e-10,4.5158738782313183e-10,-6.368803777498108e-10,1.4618245019202878e-09,6.090633096098318e-10,0.0,0.0,0.0,6.280380462878344e-10,0.0,0.0,-0.0,6.368115313355767e-10,0.009366241283714771,0.0,0.0,0.0,0.006357183679938316,0.0,0.0,-0.0,0.007645312696695326,-9.777532985366413,0.03427426035621106,0.053726039826869965
1707028608.9218678,-0.6888832449913025,0.148649662733078,-0.21746523678302765,0.6753162741661072,-0.0031929156735085694,-0.0035369063701661528,-0.001950750857939504,1.005229115486145,-9.740599632263184,0.05610634014010429,1.3213735226394518e-09,1.5572404373998778e-10,4.5165197462521764e-10,1.5572404373998778e-10,3.97338456635202e-10,-6.367385292021734e-10,4.516519399942246e-10,-6.367385292021734e-10,1.4618486050914684e-09,6.090633096098318e-10,0.0,0.0,0.0,6.280380462878344e-10,0.0,0.0,-0.0,6.368115313355767e-10,0.009366241283714771,0.0,0.0,0.0,0.006357183679938316,0.0,0.0,-0.0,0.007645312696695326,-9.792259853251814,0.03759969493905446,0.05610634014010429
1707028608.9243753,-0.688890278339386,0.14861708879470825,-0.2175026535987854,0.6753041744232178,-0.002179924198422693,0.0032993846436143223,-0.001353002644346908,1.002823829650879,-9.747794151306152,0.06086718663573265,1.321354406331274e-09,1.556978627092227e-10,4.517368551892457e-10,1.556978453937261e-10,3.9717160451056406e-10,-6.365921786254361e-10,4.517368551892457e-10,-6.365922478874222e-10,1.4619120490707831e-09,6.090633096098318e-10,0.0,0.0,0.0,6.280380462878344e-10,0.0,0.0,-0.0,6.368115313355767e-10,0.009366241283714771,0.0,0.0,0.0,0.006357183679938316,0.0,0.0,-0.0,0.007645312696695326,-9.799181421748523,0.03449511867902777,0.06086718663573265
1707028608.9268827,-0.6888648867607117,0.14862650632858276,-0.2175014168024063,0.6753283739089966,-0.0011113822763543055,0.0033168801040262728,-0.002423203580581397,0.9861474037170409,-9.75752258300781,0.07040103524923325,1.3213683972524766e-09,1.556587643180404e-10,4.5178371092287693e-10,1.556587643180404e-10,3.971573019104239e-10,-6.366065851185556e-10,4.517836416608909e-10,-6.366065851185556e-10,1.4619555455980854e-09,6.090633096098318e-10,0.0,0.0,0.0,6.280380462878344e-10,0.0,0.0,-0.0,6.368115313355767e-10,0.009366241283714771,0.0,0.0,0.0,0.006357183679938316,0.0,0.0,-0.0,0.007645312696695326,-9.807214014976518,0.016938837428883025,0.07040103524923325
1707028608.92939,-0.6888887882232666,0.1486043930053711,-0.21751768887043,0.6753036379814148,0.0005023944303402604,-0.0019094345392411949,-0.0019291007100681592,0.9766179919242858,-9.74563407897949,0.08232854306697845,1.3213449867011576e-09,1.5565549168919476e-10,4.518196232626963e-10,1.5565549168919476e-10,3.970576685433456e-10,-6.365006835417305e-10,4.5181969252468247e-10,-6.365006142797444e-10,1.4619788176254323e-09,6.090633096098318e-10,0.0,0.0,0.0,6.280380462878344e-10,0.0,0.0,-0.0,6.368115313355767e-10,0.009366241283714771,0.0,0.0,0.0,0.006357183679938316,0.0,0.0,-0.0,0.007645312696695326,-9.794441883436534,0.008631077618162397,0.08232854306697845
1707028608.9318979,-0.6888622045516968,0.14860861003398895,-0.2175161838531494,0.6753303408622742,0.0020876893566011416,0.0002147697737714574,-0.002981207624814779,0.9623239040374755,-9.736183166503906,0.09186965972185136,1.3213532981394954e-09,1.5564293795420487e-10,4.5181498270962414e-10,1.5564292063870836e-10,3.9709458518196404e-10,-6.365479202162857e-10,4.518150519716104e-10,-6.365478509542995e-10,1.4619591472213654e-09,6.090633096098318e-10,0.0,0.0,0.0,6.280380462878344e-10,0.0,0.0,-0.0,6.368115313355767e-10,0.009366241283714771,0.0,0.0,0.0,0.006357183679938316,0.0,0.0,-0.0,0.007645312696695326,-9.783624494132964,-0.0046589481076222405,0.09186965972185136
1707028608.934405,-0.6888326406478882,0.1486063003540039,-0.2175191193819046,0.6753600835800171,0.005238343341213286,-0.0007970737332113982,0.00020847191126698817,0.9648207426071168,-9.721848487854006,0.09667500108480451,1.321328640872426e-09,1.556392670689389e-10,4.5176483703165084e-10,1.5563930169993195e-10,3.9716873013813876e-10,-6.366091478120433e-10,4.5176483703165084e-10,-6.366092170740294e-10,1.461896949957802e-09,6.090633096098318e-10,0.0,0.0,0.0,6.280380462878344e-10,0.0,0.0,-0.0,6.368115313355767e-10,0.009366241283714771,0.0,0.0,0.0,0.006357183679938316,0.0,0.0,-0.0,0.007645312696695326,-9.769606773675047,-0.00075757296512724,0.09667500108480451
1707028608.9369128,-0.6888023018836975,0.148601695895195,-0.21752083301544187,0.675391435623169,0.006823318506082535,-0.0028770345909150687,0.001800243111024335,0.9600560069084167,-9.707523345947264,0.09190981090068816,1.3212876377766245e-09,1.5562596876759787e-10,4.517090118708131e-10,1.5562596876759787e-10,3.9723148149759164e-10,-6.366646959249364e-10,4.517090118708131e-10,-6.366646959249364e-10,1.4618314281189028e-09,6.090633096098318e-10,0.0,0.0,0.0,6.280380462878344e-10,0.0,0.0,-0.0,6.368115313355767e-10,0.009366241283714771,0.0,0.0,0.0,0.006357183679938316,0.0,0.0,-0.0,0.007645312696695326,-9.75488084890366,-0.004083161116747558,0.09190981090068816
1707028608.9394202,-0.6888228058815001,0.1485917717218399,-0.2175243943929672,0.6753715872764587,0.006292915110444814,-0.0018338574584070744,0.0012725603529773952,0.9672030806541443,-9.690696716308592,0.07760751992464066,1.3212381847185125e-09,1.5560387419401566e-10,4.517159727004213e-10,1.556038049320295e-10,3.971539080731025e-10,-6.36596680654536e-10,4.5171600733141435e-10,-6.365966113925497e-10,1.4618538690024158e-09,6.090633096098318e-10,0.0,0.0,0.0,6.280380462878344e-10,0.0,0.0,-0.0,6.368115313355767e-10,0.009366241283714771,0.0,0.0,0.0,0.006357183679938316,0.0,0.0,-0.0,0.007645312696695326,-9.738842982207917,0.004691971929167149,0.07760751992464066
1707028608.941928,-0.6888020634651184,0.14862369000911713,-0.217495396733284,0.6753950119018555,0.0030818082776852404,0.000739935727485601,0.0034334615443970414,0.9648207426071168,-9.68592834472656,0.05376008525490761,1.3212574395506627e-09,1.5559459308787143e-10,4.5168002572960886e-10,1.5559459308787143e-10,3.9725939407801056e-10,-6.367171272484527e-10,4.5168002572960886e-10,-6.367171272484527e-10,1.4618412633209364e-09,6.090633096098318e-10,0.0,0.0,0.0,6.280380462878344e-10,0.0,0.0,-0.0,6.368115313355767e-10,0.009366241283714771,0.0,0.0,0.0,0.006357183679938316,0.0,0.0,-0.0,0.007645312696695326,-9.733862499853332,0.002792577912566041,0.05376008525490761
1707028608.9444351,-0.6888259053230286,0.14861853420734403,-0.21750487387180328,0.6753687858581543,-0.0006510581852204391,0.0038338033268692944,0.004542585205211998,0.9671115279197693,-9.681073188781738,0.03227413073182106,1.3212649198451671e-09,1.5562925871194004e-10,4.516747271876683e-10,1.5562922408094697e-10,3.9725291808230544e-10,-6.36685613044754e-10,4.516747271876683e-10,-6.366856823067401e-10,1.4618465272318838e-09,6.090633096098318e-10,0.0,0.0,0.0,6.280380462878344e-10,0.0,0.0,-0.0,6.368115313355767e-10,0.009366241283714771,0.0,0.0,0.0,0.006357183679938316,0.0,0.0,-0.0,0.007645312696695326,-9.729257524047314,0.005552004378919229,0.03227413073182106
1707028608.9469428,-0.6888500452041626,0.14861808717250824,-0.21750202775001523,0.675345242023468,0.000971637445609376,-0.00033940981238603967,0.0034381525051297547,0.9718762040138244,-9.683424949645996,0.015579698607325552,1.3212807115780092e-09,1.5563107683907651e-10,4.5171895096582574e-10,1.556311114700696e-10,3.971749637168924e-10,-6.366209223496888e-10,4.517189163348327e-10,-6.366210608736611e-10,1.4619020753447769e-09,6.090633096098318e-10,0.0,0.0,0.0,6.280380462878344e-10,0.0,0.0,-0.0,6.368115313355767e-10,0.009366241283714771,0.0,0.0,0.0,0.006357183679938316,0.0,0.0,-0.0,0.007645312696695326,-9.732068684987132,0.010060916843623868,0.015579698607325552
1707028608.9519577,-0.6889050602912903,0.14862610399723053,-0.21749846637248993,0.6752884387969971,-0.005924238938382954,0.004813556652094186,0.0018660254023904128,0.983788013458252,-9.70008182525635,0.020344972610473633,1.321343047365545e-09,1.5565107623757762e-10,4.5181145034833047e-10,1.5565100697559152e-10,3.970611316426531e-10,-6.365222932814096e-10,4.518114849793236e-10,-6.365222240194236e-10,1.462016219097954e-09,6.090633096098318e-10,0.0,0.0,0.0,6.280380462878344e-10,0.0,0.0,-0.0,6.368115313355767e-10,0.009366241283714771,0.0,0.0,0.0,0.006357183679938316,0.0,0.0,-0.0,0.007645312696695326,-9.749821304772702,0.02026812998375893,0.020344972610473633
1707028608.9544652,-0.6889321804046631,0.14862926304340363,-0.2175011783838272,0.6752591729164124,-0.0037923253719734256,0.0048472440803643164,0.0002573706483612126,0.9814285039901731,-9.72166633605957,0.03465216979384422,1.3213951323791311e-09,1.556716816784576e-10,4.518751713755895e-10,1.5567166436296103e-10,3.969970296744703e-10,-6.364608578996937e-10,4.5187520600658253e-10,-6.364607886377077e-10,1.462086312227939e-09,6.090633096098318e-10,0.0,0.0,0.0,6.280380462878344e-10,0.0,0.0,-0.0,6.368115313355767e-10,0.009366241283714771,0.0,0.0,0.0,0.006357183679938316,0.0,0.0,-0.0,0.007645312696695326,-9.771066934199661,0.015786877726120085,0.03465216979384422
1707028608.9619875,-0.6890068054199219,0.14859232306480408,-0.21752038598060608,0.675184965133667,0.0004901206448454876,-0.0024380038906871375,-0.00033421473006934487,0.976663827896118,-9.764812469482418,0.09902779757976533,1.3214261617489265e-09,1.5570454649088627e-10,4.519840165868259e-10,1.5570449454439663e-10,3.9675890696608296e-10,-6.3622806836424e-10,4.51984051217819e-10,-6.3622806836424e-10,1.4621651323681787e-09,6.090633096098318e-10,0.0,0.0,0.0,6.280380462878344e-10,0.0,0.0,-0.0,6.368115313355767e-10,0.009366241283714771,0.0,0.0,0.0,0.006357183679938316,0.0,0.0,-0.0,0.007645312696695326,-9.813530904428996,0.0067812017389683454,0.09902779757976533
1707028608.9644952,-0.68897807598114,0.1485973298549652,-0.21752169728279117,0.675212800502777,0.0031082898264287715,0.0023230364716229734,-0.000287703881712297,0.9718762040138244,-9.772027969360352,0.1037883386015892,1.3214300404201511e-09,1.5568600159409434e-10,4.5198495162363896e-10,1.5568601890959088e-10,3.967833218162012e-10,-6.362689329360692e-10,4.5198488236165276e-10,-6.362690714600414e-10,1.462161115172982e-09,6.090633096098318e-10,0.0,0.0,0.0,6.280380462878344e-10,0.0,0.0,-0.0,6.368115313355767e-10,0.009366241283714771,0.0,0.0,0.0,0.006357183679938316,0.0,0.0,-0.0,0.007645312696695326,-9.820237893747354,0.0013038780119812854,0.1037883386015892
1707028608.9695103,-0.6889193058013916,0.14858971536159515,-0.21752341091632843,0.6752739548683168,0.00794327452291447,-0.005474716059364768,-0.003026006989009172,0.9647291898727418,-9.757723808288574,0.0870984047651291,1.3213650726771412e-09,1.5566378581203635e-10,4.5188746537813135e-10,1.5566376849653984e-10,3.9691443475598517e-10,-6.363799598998692e-10,4.5188746537813135e-10,-6.363799598998692e-10,1.462030764115046e-09,6.090633096098318e-10,0.0,0.0,0.0,6.280380462878344e-10,0.0,0.0,-0.0,6.368115313355767e-10,0.009366241283714771,0.0,0.0,0.0,0.006357183679938316,0.0,0.0,-0.0,0.007645312696695326,-9.805297395688608,-0.004394398293785962,0.0870984047651291
1707028608.9720175,-0.6889021992683411,0.14861467480659485,-0.21749381721019745,0.6752954125404358,0.006343148467739463,-0.003398288051391825,-0.0030105203427403422,0.9647291898727418,-9.745750427246092,0.07040853798389435,1.3213272556327031e-09,1.556225749302765e-10,4.5183662708029645e-10,1.5562260956126955e-10,3.9700090834569476e-10,-6.364823983773866e-10,4.5183662708029645e-10,-6.364823983773866e-10,1.4619993191733333e-09,6.090633096098318e-10,0.0,0.0,0.0,6.280380462878344e-10,0.0,0.0,-0.0,6.368115313355767e-10,0.009366241283714771,0.0,0.0,0.0,0.006357183679938316,0.0,0.0,-0.0,0.007645312696695326,-9.793382637748037,-0.0032110146678882012,0.07040853798389435
1707028608.9745252,-0.6889214515686035,0.14859110116958618,-0.2175167053937912,0.675273597240448,0.002594928061493039,0.0012677462470483108,-0.0013846020658397152,0.9719677567481994,-9.728969573974608,0.05374541133642197,1.321309940136165e-09,1.556565998809732e-10,4.5181858433290407e-10,1.5565658256547668e-10,3.9697490046989503e-10,-6.364248416668952e-10,4.518186189638971e-10,-6.364248416668952e-10,1.461966350467925e-09,6.090633096098318e-10,0.0,0.0,0.0,6.280380462878344e-10,0.0,0.0,-0.0,6.368115313355767e-10,0.009366241283714771,0.0,0.0,0.0,0.006357183679938316,0.0,0.0,-0.0,0.007645312696695326,-9.777399365974459,0.00565063926021514,0.05374541133642197
1707028608.977033,-0.6889432072639465,0.1485882997512817,-0.21752429008483887,0.6752495169639587,0.0036397192153076385,0.004432772979563803,-0.001892887569919348,0.9814971685409546,-9.709726333618164,0.044214081019163125,1.3213218531977832e-09,1.5564222801884683e-10,4.518917596212727e-10,1.5564221070335032e-10,3.9685493870988136e-10,-6.363305068417574e-10,4.5189179425226575e-10,-6.363305761037436e-10,1.4620548672862263e-09,6.090633096098318e-10,0.0,0.0,0.0,6.280380462878344e-10,0.0,0.0,-0.0,6.368115313355767e-10,0.009366241283714771,0.0,0.0,0.0,0.006357183679938316,0.0,0.0,-0.0,0.007645312696695326,-9.759192177863948,0.01703529075423338,0.044214081019163125
1707028608.9795403,-0.6889675259590149,0.14857682585716248,-0.21752960979938507,0.675225555896759,0.0020844082588241325,-0.0018885323651497068,-0.001411417419988826,0.9886442422866819,-9.69289970397949,0.034681566059589386,1.321331411351872e-09,1.5564778629323548e-10,4.519363643403539e-10,1.556477170312493e-10,3.9676268174432816e-10,-6.362435830491378e-10,4.519363643403539e-10,-6.362434445251656e-10,1.462092268758748e-09,6.090633096098318e-10,0.0,0.0,0.0,6.280380462878344e-10,0.0,0.0,-0.0,6.368115313355767e-10,0.009366241283714771,0.0,0.0,0.0,0.006357183679938316,0.0,0.0,-0.0,0.007645312696695326,-9.743154311168203,0.025810423800147975,0.034681566059589386
1707028608.9820476,-0.6889934539794922,0.14856493473052979,-0.21753396093845367,0.675200343132019,-4.644200180487941e-05,-0.002973092265347928,0.0007202632498560772,0.9838795065879821,-9.676179885864256,0.039456777274608605,1.321326840060786e-09,1.5564354399658371e-10,4.5197553199352235e-10,1.556434920500941e-10,3.9666606127364733e-10,-6.36158806378089e-10,4.5197556662451543e-10,-6.361588756400751e-10,1.4621273153237402e-09,6.090633096098318e-10,0.0,0.0,0.0,6.280380462878344e-10,0.0,0.0,-0.0,6.368115313355767e-10,0.009366241283714771,0.0,0.0,0.0,0.006357183679938316,0.0,0.0,-0.0,0.007645312696695326,-9.726045434808706,0.02272151237370701,0.039456777274608605
1707028608.9870627,-0.6889986395835876,0.1485600173473358,-0.21753792464733124,0.6751948595046997,-0.003230755448569104,-0.0014437806797957644,0.0007414476696167551,0.9647520780563353,-9.673921585083008,0.0561312772333622,1.3213596702422215e-09,1.5565653061898704e-10,4.5200410256280965e-10,1.5565649598799394e-10,3.9664130011359836e-10,-6.361378892582712e-10,4.520040679318166e-10,-6.361378892582712e-10,1.4621352111901616e-09,6.090633096098318e-10,0.0,0.0,0.0,6.280380462878344e-10,0.0,0.0,-0.0,6.368115313355767e-10,0.009366241283714771,0.0,0.0,0.0,0.006357183679938316,0.0,0.0,-0.0,0.007645312696695326,-9.721907740307905,0.0039109321362479355,0.0561312772333622
1707028608.9895704,-0.6890245079994202,0.14856423437595367,-0.2175235450267792,0.6751721501350403,-0.001100225347570546,-0.00456338647046253,0.0012536438464134485,0.9599873423576355,-9.685937881469727,0.06805073469877243,1.321328640872426e-09,1.556183153181282e-10,4.520354436115431e-10,1.5561829800263166e-10,3.965678477772852e-10,-6.360869816984503e-10,4.520354436115431e-10,-6.360870509604363e-10,1.4621834175325227e-09,6.090633096098318e-10,0.0,0.0,0.0,6.280380462878344e-10,0.0,0.0,-0.0,6.368115313355767e-10,0.009366241283714771,0.0,0.0,0.0,0.006357183679938316,0.0,0.0,-0.0,0.007645312696695326,-9.733394283005778,-0.0020180999923473664,0.06805073469877243
1707028608.9920778,-0.688999354839325,0.1485585719347,-0.2175309062004089,0.6751967072486876,0.000966467557993628,-0.0003407134349769764,0.003969898664545432,0.9695167541503905,-9.700220108032225,0.07520145177841185,1.3213391686943208e-09,1.5565053945718498e-10,4.5197809468700997e-10,1.5565055677268152e-10,3.9665972380191457e-10,-6.361565207325458e-10,4.5197809468700997e-10,-6.361565207325458e-10,1.4621023810087259e-09,6.090633096098318e-10,0.0,0.0,0.0,6.280380462878344e-10,0.0,0.0,-0.0,6.368115313355767e-10,0.009366241283714771,0.0,0.0,0.0,0.006357183679938316,0.0,0.0,-0.0,0.007645312696695326,-9.74854841712886,0.0060530773491576095,0.07520145177841185
1707028608.9945853,-0.6889822483062744,0.14853665232658386,-0.21754929423332212,0.6752130389213562,-6.135595626653732e-05,-0.002976372062753276,0.0023355301824750456,0.9790690541267395,-9.719304084777832,0.07997154444456099,1.3213006590300207e-09,1.55636790952934e-10,4.519677746510735e-10,1.5563673900644436e-10,3.9664334334218974e-10,-6.361329716572547e-10,4.5196780928206653e-10,-6.361329023952685e-10,1.4620652565841488e-09,6.090633096098318e-10,0.0,0.0,0.0,6.280380462878344e-10,0.0,0.0,-0.0,6.368115313355767e-10,0.009366241283714771,0.0,0.0,0.0,0.006357183679938316,0.0,0.0,-0.0,0.007645312696695326,-9.76848305363648,0.013672452033089977,0.07997154444456099
1707028608.9970927,-0.689006507396698,0.14852122962474823,-0.21756003797054288,0.6751882433891296,-0.0016785696753003599,-0.0014294377104034724,0.004489665800212771,0.9909808039665222,-9.733565330505373,0.07042838633060455,1.3212599329821639e-09,1.5559824665764092e-10,4.520259200884473e-10,1.5559826397313743e-10,3.9650152942554557e-10,-6.360165422585345e-10,4.5202595471944036e-10,-6.360164037345623e-10,1.4621332718545492e-09,6.090633096098318e-10,0.0,0.0,0.0,6.280380462878344e-10,0.0,0.0,-0.0,6.368115313355767e-10,0.009366241283714771,0.0,0.0,0.0,0.006357183679938316,0.0,0.0,-0.0,0.007645312696695326,-9.783851766937925,0.0241163768415551,0.07042838633060455
